Name:  Black Shale 
Type:  Rocks
Class:  Sedimentary
Subclass:  Shale 
Particle Size:  500 - 1500 Micrometers
File Name:  shale.4
Owner:  JHU
Wavelength Range:  All
Origin:  Sample No. 385,  The Hunt and Salisbury Collection at the U.S. 
Geological Survey, Denver, Co.
Description: This is very similar to shale.6, but with more clay in the 
matrix and fewer forams (mostly uniserial, some biserial and 
plani/trocho spiral types). There is possibly more quartz than 
carbonate in the groundmass, while again both opaques and 
carbonaceous material are present here.

Measurement:  Directional (10 Degree) Hemispherical Reflectance
First Column:  X
Second Column:  Y  
X Units:  Wavelength (micrometers)
Y Units:  Reflectance (percent)
First X Value: 14.0112
Last X Value:  0.4
Number of X Values: 2844
Additional Information:  None

14.0112	1.9806
13.9734	1.9822
13.9359	2.0007
13.8985	2.0344
13.8614	2.0751
13.8244	2.1119
13.7876	2.1378
13.7511	2.1514
13.7147	2.1572
13.6785	2.1622
13.6425	2.1731
13.6067	2.1927
13.5711	2.2203
13.5356	2.2516
13.5004	2.2815
13.4653	2.3062
13.4304	2.3242
13.3957	2.3366
13.3612	2.3449
13.3269	2.3521
13.2927	2.36
13.2587	2.3705
13.2249	2.3854
13.1912	2.4062
13.1577	2.4342
13.1244	2.4696
13.0913	2.5096
13.0583	2.5488
13.0255	2.5823
12.9929	2.6036
12.9604	2.6084
12.9281	2.5952
12.8959	2.5649
12.8639	2.5212
12.8321	2.4713
12.8004	2.423
12.7688	2.3849
12.7375	2.3634
12.7063	2.3589
12.6752	2.3658
12.6443	2.3732
12.6135	2.3682
12.5829	2.3404
12.5524	2.2852
12.5221	2.206
12.4919	2.1127
12.4619	2.0191
12.432	1.9387
12.4023	1.8808
12.3727	1.8499
12.3432	1.8445
12.3139	1.8597
12.2847	1.8894
12.2557	1.9275
12.2268	1.9686
12.198	2.0105
12.1694	2.0497
12.1409	2.0842
12.1125	2.1122
12.0843	2.1346
12.0562	2.1542
12.0282	2.1746
12.0003	2.2
11.9726	2.2322
11.945	2.2711
11.9176	2.3134
11.8903	2.3555
11.8631	2.3945
11.836	2.4304
11.809	2.4646
11.7822	2.4995
11.7555	2.5378
11.7289	2.5813
11.7024	2.6333
11.676	2.6943
11.6498	2.7649
11.6237	2.8421
11.5977	2.9175
11.5718	2.9785
11.546	3.0104
11.5203	3.0024
11.4948	2.9534
11.4694	2.8728
11.444	2.7805
11.4188	2.7012
11.3937	2.6577
11.3688	2.662
11.3439	2.7136
11.3191	2.7991
11.2944	2.8972
11.2699	2.9865
11.2455	3.0502
11.2211	3.0821
11.1969	3.0843
11.1727	3.0656
11.1487	3.0371
11.1248	3.0074
11.101	2.9812
11.0773	2.9586
11.0536	2.939
11.0301	2.9199
11.0067	2.9005
10.9834	2.8819
10.9602	2.8648
10.937	2.851
10.914	2.8397
10.8911	2.8311
10.8682	2.8253
10.8455	2.823
10.8229	2.8245
10.8003	2.8301
10.7779	2.8396
10.7555	2.85
10.7332	2.8592
10.7111	2.8653
10.689	2.8699
10.667	2.8744
10.6451	2.8831
10.6233	2.8982
10.6015	2.9206
10.5799	2.9493
10.5584	2.9823
10.5369	3.0175
10.5155	3.0532
10.4942	3.0884
10.473	3.1228
10.4519	3.1563
10.4309	3.1878
10.4099	3.2166
10.3891	3.2421
10.3683	3.2647
10.3476	3.2843
10.327	3.3017
10.3065	3.3175
10.286	3.3321
10.2656	3.3453
10.2454	3.3575
10.2251	3.3689
10.205	3.3805
10.185	3.391
10.165	3.4013
10.1451	3.4113
10.1253	3.4219
10.1056	3.4326
10.0859	3.4443
10.0663	3.4568
10.0468	3.4695
10.0274	3.4812
10.008	3.4922
9.9887	3.5044
9.9695	3.519
9.9504	3.5374
9.9313	3.5595
9.9123	3.5845
9.8934	3.6113
9.8746	3.6379
9.8558	3.6644
9.8371	3.692
9.8185	3.7207
9.7999	3.7504
9.7814	3.7809
9.763	3.8131
9.7447	3.8461
9.7264	3.8815
9.7082	3.9193
9.69	3.9597
9.6719	4.0004
9.6539	4.0387
9.636	4.0729
9.6181	4.1031
9.6003	4.1293
9.5825	4.153
9.5649	4.1743
9.5472	4.1922
9.5297	4.2047
9.5122	4.2107
9.4948	4.2121
9.4774	4.2145
9.4601	4.226
9.4429	4.2552
9.4257	4.3086
9.4086	4.3878
9.3916	4.4885
9.3746	4.6016
9.3577	4.716
9.3408	4.8203
9.324	4.9048
9.3073	4.9636
9.2906	4.9961
9.274	5.0051
9.2574	4.9953
9.2409	4.9732
9.2245	4.946
9.2081	4.9184
9.1918	4.894
9.1755	4.8734
9.1593	4.856
9.1431	4.8409
9.127	4.8256
9.111	4.8089
9.095	4.7904
9.0791	4.7705
9.0632	4.75
9.0474	4.7292
9.0316	4.7093
9.0159	4.6899
9.0003	4.6715
8.9847	4.6535
8.9691	4.6366
8.9536	4.621
8.9382	4.6074
8.9228	4.5959
8.9075	4.5866
8.8922	4.5796
8.877	4.5748
8.8618	4.5729
8.8467	4.5734
8.8316	4.5758
8.8166	4.579
8.8016	4.5808
8.7867	4.5808
8.7718	4.579
8.757	4.5746
8.7422	4.5647
8.7275	4.5447
8.7129	4.5069
8.6982	4.4435
8.6837	4.3531
8.6692	4.2432
8.6547	4.1315
8.6403	4.0408
8.6259	3.9934
8.6116	4.0018
8.5973	4.0645
8.583	4.1669
8.5688	4.2865
8.5547	4.4021
8.5406	4.498
8.5266	4.5687
8.5126	4.6165
8.4986	4.6485
8.4847	4.6724
8.4708	4.6942
8.457	4.7181
8.4432	4.7466
8.4295	4.7815
8.4158	4.8235
8.4022	4.8731
8.3886	4.932
8.375	4.9998
8.3615	5.0773
8.3481	5.1658
8.3347	5.2655
8.3213	5.3773
8.3079	5.5005
8.2946	5.6357
8.2814	5.7819
8.2682	5.9386
8.255	6.1039
8.2419	6.2743
8.2288	6.4439
8.2158	6.6054
8.2028	6.7513
8.1898	6.8738
8.1769	6.9672
8.164	7.0282
8.1512	7.0564
8.1384	7.0562
8.1256	7.0328
8.1129	6.9942
8.1002	6.9485
8.0876	6.9025
8.075	6.8617
8.0624	6.8296
8.0499	6.8092
8.0374	6.8014
8.025	6.8054
8.0126	6.8182
8.0002	6.8339
7.9879	6.8459
7.9756	6.8469
7.9634	6.8328
7.9512	6.8028
7.939	6.7604
7.9268	6.7116
7.9147	6.6635
7.9027	6.622
7.8906	6.5894
7.8786	6.5654
7.8667	6.5488
7.8548	6.5367
7.8429	6.5289
7.831	6.5262
7.8192	6.5317
7.8075	6.5491
7.7957	6.5803
7.784	6.6238
7.7723	6.676
7.7607	6.7301
7.7491	6.7798
7.7375	6.8205
7.726	6.8492
7.7145	6.8662
7.7031	6.8731
7.6916	6.871
7.6802	6.8607
7.6689	6.8423
7.6575	6.8162
7.6462	6.7841
7.635	6.7495
7.6238	6.7169
7.6126	6.6909
7.6014	6.6753
7.5903	6.6724
7.5792	6.6817
7.5681	6.7004
7.5571	6.7246
7.5461	6.7501
7.5351	6.7734
7.5242	6.7908
7.5133	6.8004
7.5024	6.8028
7.4916	6.798
7.4807	6.7885
7.47	6.7757
7.4592	6.7621
7.4485	6.7475
7.4378	6.7322
7.4272	6.7157
7.4165	6.6968
7.4059	6.6726
7.3954	6.6404
7.3848	6.5963
7.3743	6.5367
7.3639	6.459
7.3534	6.3624
7.343	6.248
7.3326	6.118
7.3223	5.9769
7.3119	5.8297
7.3016	5.6833
7.2914	5.5431
7.2811	5.4144
7.2709	5.2991
7.2607	5.1955
7.2506	5.0976
7.2404	4.9978
7.2303	4.8887
7.2203	4.7655
7.2102	4.6273
7.2002	4.4782
7.1902	4.3265
7.1803	4.1839
7.1703	4.0628
7.1604	3.9748
7.1506	3.9274
7.1407	3.9215
7.1309	3.9494
7.1211	3.9972
7.1113	4.0475
7.1016	4.0839
7.0919	4.0941
7.0822	4.0739
7.0725	4.0262
7.0629	3.9587
7.0533	3.882
7.0437	3.8051
7.0341	3.7348
7.0246	3.6728
7.0151	3.6176
7.0056	3.5656
6.9962	3.5142
6.9867	3.462
6.9773	3.4099
6.9679	3.3603
6.9586	3.3166
6.9493	3.28
6.94	3.2511
6.9307	3.2283
6.9214	3.2091
6.9122	3.1915
6.903	3.1727
6.8938	3.1531
6.8847	3.1337
6.8755	3.1175
6.8664	3.1065
6.8573	3.1034
6.8483	3.1075
6.8393	3.1153
6.8302	3.1239
6.8213	3.1307
6.8123	3.1347
6.8034	3.1385
6.7944	3.1455
6.7855	3.1589
6.7767	3.1792
6.7678	3.2053
6.759	3.236
6.7502	3.2685
6.7414	3.3017
6.7327	3.3352
6.7239	3.3702
6.7152	3.408
6.7065	3.4494
6.6979	3.4961
6.6892	3.5487
6.6806	3.6051
6.672	3.663
6.6634	3.7202
6.6549	3.7774
6.6464	3.8355
6.6378	3.8968
6.6294	3.9628
6.6209	4.0322
6.6124	4.1009
6.604	4.1633
6.5956	4.2174
6.5872	4.2643
6.5789	4.3083
6.5705	4.3547
6.5622	4.408
6.5539	4.4671
6.5456	4.5265
6.5374	4.5782
6.5292	4.6165
6.5209	4.6404
6.5128	4.6565
6.5046	4.6772
6.4964	4.7179
6.4883	4.7895
6.4802	4.894
6.4721	5.0222
6.464	5.1558
6.456	5.271
6.448	5.3488
6.4399	5.3802
6.432	5.3679
6.424	5.3249
6.416	5.2658
6.4081	5.2026
6.4002	5.1385
6.3923	5.0677
6.3844	4.9807
6.3766	4.8691
6.3687	4.7309
6.3609	4.5703
6.3531	4.3966
6.3454	4.22
6.3376	4.0495
6.3299	3.8893
6.3221	3.7427
6.3144	3.6104
6.3068	3.4936
6.2991	3.3925
6.2914	3.3055
6.2838	3.2295
6.2762	3.1601
6.2686	3.0919
6.2611	3.022
6.2535	2.9496
6.246	2.8764
6.2385	2.8055
6.231	2.739
6.2235	2.6771
6.216	2.6187
6.2086	2.5624
6.2011	2.5086
6.1937	2.4591
6.1863	2.4177
6.179	2.3881
6.1716	2.3701
6.1643	2.362
6.157	2.3586
6.1496	2.3545
6.1424	2.3466
6.1351	2.3345
6.1278	2.3203
6.1206	2.3081
6.1134	2.3011
6.1062	2.3
6.099	2.3028
6.0918	2.3053
6.0847	2.3038
6.0776	2.2971
6.0704	2.2863
6.0633	2.2749
6.0563	2.2686
6.0492	2.2717
6.0421	2.2857
6.0351	2.3076
6.0281	2.3333
6.0211	2.3564
6.0141	2.3732
6.0071	2.3818
6.0002	2.3838
5.9932	2.3828
5.9863	2.3813
5.9794	2.3806
5.9725	2.3806
5.9657	2.3806
5.9588	2.3803
5.952	2.3818
5.9451	2.3866
5.9383	2.3974
5.9315	2.4138
5.9247	2.4334
5.918	2.4528
5.9112	2.4686
5.9045	2.4809
5.8978	2.4912
5.8911	2.5038
5.8844	2.5232
5.8777	2.5509
5.8711	2.5851
5.8644	2.6213
5.8578	2.6536
5.8512	2.6776
5.8446	2.6917
5.838	2.6986
5.8314	2.7036
5.8249	2.7118
5.8184	2.7256
5.8118	2.744
5.8053	2.7627
5.7988	2.7759
5.7923	2.7795
5.7859	2.7735
5.7794	2.7617
5.773	2.7496
5.7666	2.7421
5.7602	2.7423
5.7538	2.75
5.7474	2.7627
5.741	2.777
5.7347	2.7906
5.7283	2.8022
5.722	2.8117
5.7157	2.8203
5.7094	2.8288
5.7031	2.8374
5.6969	2.8459
5.6906	2.8545
5.6844	2.8622
5.6782	2.8673
5.6719	2.8685
5.6657	2.8646
5.6596	2.8553
5.6534	2.8404
5.6472	2.8218
5.6411	2.8012
5.6349	2.779
5.6288	2.7531
5.6227	2.7211
5.6166	2.6778
5.6106	2.6177
5.6045	2.5375
5.5984	2.4387
5.5924	2.3277
5.5864	2.2168
5.5804	2.1217
5.5744	2.0586
5.5684	2.0397
5.5624	2.0689
5.5564	2.1411
5.5505	2.2445
5.5445	2.362
5.5386	2.4772
5.5327	2.5783
5.5268	2.6588
5.5209	2.7196
5.5151	2.7654
5.5092	2.8019
5.5033	2.8354
5.4975	2.8694
5.4917	2.905
5.4859	2.9422
5.4801	2.9805
5.4743	3.019
5.4685	3.0567
5.4628	3.0934
5.457	3.1269
5.4513	3.1551
5.4455	3.1757
5.4398	3.1874
5.4341	3.1903
5.4284	3.186
5.4228	3.1774
5.4171	3.1659
5.4114	3.1527
5.4058	3.1367
5.4002	3.1158
5.3945	3.0888
5.3889	3.0562
5.3833	3.0199
5.3778	2.9828
5.3722	2.9488
5.3666	2.9204
5.3611	2.8998
5.3555	2.8879
5.35	2.8849
5.3445	2.8905
5.339	2.9025
5.3335	2.9187
5.328	2.9362
5.3225	2.9526
5.3171	2.9668
5.3116	2.9792
5.3062	2.9916
5.3008	3.0065
5.2954	3.0255
5.29	3.0501
5.2846	3.0795
5.2792	3.113
5.2738	3.1496
5.2684	3.1883
5.2631	3.229
5.2578	3.2711
5.2524	3.3151
5.2471	3.3603
5.2418	3.4063
5.2365	3.4513
5.2312	3.4941
5.226	3.5336
5.2207	3.5695
5.2154	3.6015
5.2102	3.63
5.205	3.6556
5.1998	3.6774
5.1945	3.6949
5.1893	3.708
5.1842	3.7167
5.179	3.7216
5.1738	3.7248
5.1686	3.7271
5.1635	3.73
5.1584	3.7334
5.1532	3.7362
5.1481	3.7391
5.143	3.7415
5.1379	3.7434
5.1328	3.7449
5.1277	3.7459
5.1227	3.7459
5.1176	3.7446
5.1126	3.7427
5.1075	3.7411
5.1025	3.7408
5.0975	3.7419
5.0925	3.7446
5.0875	3.7467
5.0825	3.7475
5.0775	3.747
5.0726	3.7456
5.0676	3.7444
5.0627	3.7449
5.0577	3.748
5.0528	3.7525
5.0479	3.7568
5.043	3.76
5.038	3.7608
5.0332	3.7602
5.0283	3.7592
5.0234	3.7602
5.0185	3.7643
5.0137	3.7716
5.0088	3.7814
5.004	3.793
4.9992	3.8061
4.9944	3.8214
4.9896	3.8405
4.9848	3.8644
4.98	3.893
4.9752	3.9248
4.9704	3.9583
4.9657	3.991
4.9609	4.0216
4.9562	4.0495
4.9514	4.0741
4.9467	4.0958
4.942	4.1147
4.9373	4.1313
4.9326	4.1468
4.9279	4.163
4.9232	4.182
4.9186	4.2054
4.9139	4.2337
4.9092	4.2664
4.9046	4.3021
4.9	4.3387
4.8953	4.3743
4.8907	4.4074
4.8861	4.4368
4.8815	4.4624
4.8769	4.4847
4.8723	4.504
4.8678	4.5212
4.8632	4.537
4.8586	4.5521
4.8541	4.5667
4.8495	4.5801
4.845	4.5923
4.8405	4.6026
4.836	4.611
4.8315	4.6177
4.827	4.6241
4.8225	4.6311
4.818	4.6389
4.8135	4.6478
4.809	4.6572
4.8046	4.6655
4.8001	4.6729
4.7957	4.6794
4.7913	4.6864
4.7868	4.694
4.7824	4.7026
4.778	4.7114
4.7736	4.7189
4.7692	4.7234
4.7648	4.7254
4.7605	4.7259
4.7561	4.7265
4.7517	4.7292
4.7474	4.734
4.7431	4.7397
4.7387	4.7445
4.7344	4.7459
4.7301	4.7425
4.7258	4.7342
4.7215	4.7211
4.7172	4.7045
4.7129	4.6859
4.7086	4.6658
4.7043	4.6454
4.7	4.6253
4.6958	4.6062
4.6915	4.5896
4.6873	4.5763
4.6831	4.5667
4.6788	4.5617
4.6746	4.5609
4.6704	4.5645
4.6662	4.5727
4.662	4.5853
4.6578	4.6029
4.6536	4.6248
4.6495	4.65
4.6453	4.6766
4.6411	4.7028
4.637	4.728
4.6328	4.7519
4.6287	4.7744
4.6246	4.7961
4.6205	4.8177
4.6163	4.8383
4.6122	4.8567
4.6081	4.873
4.604	4.8869
4.6	4.8975
4.5959	4.9062
4.5918	4.9131
4.5877	4.9206
4.5837	4.9292
4.5796	4.939
4.5756	4.95
4.5716	4.9608
4.5675	4.9691
4.5635	4.9739
4.5595	4.9756
4.5555	4.9759
4.5515	4.9763
4.5475	4.9782
4.5435	4.982
4.5395	4.9873
4.5356	4.9931
4.5316	4.9986
4.5276	5.0038
4.5237	5.0084
4.5197	5.0124
4.5158	5.0151
4.5119	5.016
4.508	5.0153
4.504	5.0137
4.5001	5.0122
4.4962	5.0129
4.4923	5.0158
4.4884	5.0213
4.4846	5.0287
4.4807	5.0368
4.4768	5.0447
4.473	5.0524
4.4691	5.0607
4.4652	5.0701
4.4614	5.0811
4.4576	5.0934
4.4537	5.1065
4.4499	5.1184
4.4461	5.1282
4.4423	5.1357
4.4385	5.1417
4.4347	5.1474
4.4309	5.1541
4.4271	5.1634
4.4233	5.1749
4.4196	5.1871
4.4158	5.1991
4.412	5.2096
4.4083	5.2184
4.4045	5.2263
4.4008	5.2343
4.3971	5.2428
4.3934	5.2522
4.3896	5.2617
4.3859	5.271
4.3822	5.2797
4.3785	5.2869
4.3748	5.2924
4.3711	5.2964
4.3674	5.2993
4.3638	5.3012
4.3601	5.3034
4.3564	5.3062
4.3528	5.3098
4.3491	5.3139
4.3455	5.3173
4.3418	5.3196
4.3382	5.3216
4.3346	5.3233
4.331	5.3256
4.3273	5.3294
4.3237	5.3349
4.3201	5.3417
4.3165	5.3485
4.3129	5.355
4.3094	5.3603
4.3058	5.3634
4.3022	5.3649
4.2986	5.3651
4.2951	5.3651
4.2915	5.3653
4.288	5.3668
4.2844	5.3691
4.2809	5.3726
4.2774	5.3764
4.2738	5.3802
4.2703	5.385
4.2668	5.3905
4.2633	5.3972
4.2598	5.4041
4.2563	5.4113
4.2528	5.4182
4.2493	5.4242
4.2458	5.4297
4.2424	5.435
4.2389	5.4403
4.2354	5.4455
4.232	5.451
4.2285	5.4565
4.2251	5.462
4.2216	5.467
4.2182	5.4713
4.2148	5.475
4.2113	5.4778
4.2079	5.4795
4.2045	5.4797
4.2011	5.4785
4.1977	5.4771
4.1943	5.4758
4.1909	5.4763
4.1875	5.4793
4.1841	5.4845
4.1808	5.4907
4.1774	5.4962
4.174	5.4996
4.1707	5.5001
4.1673	5.4979
4.164	5.4948
4.1606	5.4921
4.1573	5.4914
4.154	5.4931
4.1506	5.4967
4.1473	5.5007
4.144	5.5041
4.1407	5.5053
4.1374	5.5039
4.1341	5.5001
4.1308	5.4946
4.1275	5.4893
4.1242	5.485
4.1209	5.4818
4.1177	5.4802
4.1144	5.4783
4.1111	5.4757
4.1079	5.4713
4.1046	5.4656
4.1014	5.4594
4.0981	5.4524
4.0949	5.4453
4.0917	5.4371
4.0884	5.4275
4.0852	5.4166
4.082	5.4046
4.0788	5.3926
4.0756	5.3804
4.0724	5.3682
4.0692	5.3546
4.066	5.3381
4.0628	5.3173
4.0596	5.2912
4.0565	5.2594
4.0533	5.2213
4.0501	5.1759
4.047	5.1228
4.0438	5.0615
4.0406	4.9935
4.0375	4.9211
4.0344	4.8474
4.0312	4.776
4.0281	4.7088
4.025	4.6449
4.0218	4.5815
4.0187	4.5136
4.0156	4.437
4.0125	4.3483
4.0094	4.2475
4.0063	4.1375
4.0032	4.0234
4.0001	3.9114
3.997	3.8075
3.994	3.7162
3.9909	3.64
3.9878	3.5797
3.9847	3.5351
3.9817	3.5044
3.9786	3.4867
3.9756	3.4807
3.9725	3.485
3.9695	3.4989
3.9665	3.5218
3.9634	3.5537
3.9604	3.5946
3.9574	3.6443
3.9544	3.7032
3.9513	3.7703
3.9483	3.8435
3.9453	3.9188
3.9423	3.992
3.9393	4.0583
3.9363	4.1145
3.9333	4.1602
3.9304	4.1968
3.9274	4.2274
3.9244	4.255
3.9214	4.282
3.9185	4.3091
3.9155	4.3363
3.9126	4.3622
3.9096	4.3858
3.9067	4.4062
3.9037	4.4226
3.9008	4.4363
3.8979	4.4475
3.8949	4.4578
3.892	4.4676
3.8891	4.4774
3.8862	4.4872
3.8833	4.4966
3.8804	4.5061
3.8775	4.5169
3.8746	4.53
3.8717	4.5461
3.8688	4.5645
3.8659	4.5839
3.863	4.6024
3.8601	4.6177
3.8573	4.6296
3.8544	4.6387
3.8515	4.6469
3.8487	4.656
3.8458	4.6686
3.843	4.6866
3.8401	4.7105
3.8373	4.7397
3.8344	4.7732
3.8316	4.8093
3.8288	4.8464
3.8259	4.8823
3.8231	4.9174
3.8203	4.9521
3.8175	4.9878
3.8147	5.0256
3.8119	5.0668
3.8091	5.1125
3.8063	5.162
3.8035	5.2154
3.8007	5.2708
3.7979	5.3271
3.7951	5.3812
3.7924	5.43
3.7896	5.4715
3.7868	5.5055
3.7841	5.5321
3.7813	5.5534
3.7785	5.5716
3.7758	5.5888
3.773	5.6058
3.7703	5.6223
3.7676	5.6378
3.7648	5.6522
3.7621	5.6647
3.7594	5.675
3.7566	5.6835
3.7539	5.691
3.7512	5.6976
3.7485	5.7039
3.7458	5.7097
3.7431	5.7149
3.7404	5.7192
3.7377	5.7221
3.735	5.7238
3.7323	5.7256
3.7296	5.7285
3.7269	5.7326
3.7242	5.7384
3.7216	5.7448
3.7189	5.751
3.7162	5.7555
3.7136	5.7577
3.7109	5.7577
3.7083	5.7558
3.7056	5.7525
3.703	5.7487
3.7003	5.7448
3.6977	5.7407
3.695	5.7366
3.6924	5.7331
3.6898	5.73
3.6872	5.7276
3.6845	5.7255
3.6819	5.723
3.6793	5.7195
3.6767	5.714
3.6741	5.7062
3.6715	5.6979
3.6689	5.6908
3.6663	5.6857
3.6637	5.6833
3.6611	5.6831
3.6585	5.6838
3.656	5.6833
3.6534	5.681
3.6508	5.6764
3.6482	5.6707
3.6457	5.6642
3.6431	5.6577
3.6406	5.6518
3.638	5.646
3.6355	5.6403
3.6329	5.6347
3.6304	5.63
3.6278	5.6257
3.6253	5.6223
3.6227	5.6189
3.6202	5.6146
3.6177	5.6089
3.6152	5.6008
3.6127	5.5907
3.6101	5.5794
3.6076	5.5668
3.6051	5.5539
3.6026	5.5409
3.6001	5.5278
3.5976	5.5144
3.5951	5.5005
3.5926	5.4864
3.5901	5.4713
3.5876	5.4544
3.5852	5.4345
3.5827	5.4122
3.5802	5.3878
3.5777	5.363
3.5753	5.339
3.5728	5.3175
3.5704	5.2984
3.5679	5.2806
3.5654	5.2642
3.563	5.2484
3.5605	5.2333
3.5581	5.2192
3.5557	5.2048
3.5532	5.189
3.5508	5.1701
3.5484	5.1474
3.5459	5.1203
3.5435	5.0894
3.5411	5.0562
3.5387	5.0203
3.5363	4.9807
3.5338	4.9359
3.5314	4.8852
3.529	4.828
3.5266	4.7646
3.5242	4.6964
3.5218	4.6251
3.5195	4.5519
3.5171	4.4791
3.5147	4.4095
3.5123	4.3461
3.5099	4.2918
3.5075	4.249
3.5052	4.2174
3.5028	4.1954
3.5004	4.1803
3.4981	4.1683
3.4957	4.1571
3.4934	4.1456
3.491	4.1336
3.4887	4.1215
3.4863	4.1097
3.484	4.0988
3.4816	4.0906
3.4793	4.087
3.477	4.0908
3.4746	4.1042
3.4723	4.1272
3.47	4.1571
3.4677	4.1894
3.4653	4.2191
3.463	4.2422
3.4607	4.2568
3.4584	4.2636
3.4561	4.2646
3.4538	4.2624
3.4515	4.2585
3.4492	4.2545
3.4469	4.2502
3.4446	4.244
3.4423	4.2346
3.44	4.2217
3.4378	4.2047
3.4355	4.1834
3.4332	4.159
3.4309	4.1325
3.4287	4.1052
3.4264	4.0789
3.4241	4.0556
3.4219	4.038
3.4196	4.0286
3.4174	4.0284
3.4151	4.037
3.4129	4.0523
3.4106	4.0712
3.4084	4.0908
3.4061	4.1083
3.4039	4.1219
3.4017	4.1318
3.3994	4.1381
3.3972	4.1416
3.395	4.1418
3.3928	4.1396
3.3906	4.1358
3.3883	4.131
3.3861	4.1258
3.3839	4.1219
3.3817	4.1207
3.3795	4.1229
3.3773	4.1291
3.3751	4.1391
3.3729	4.1528
3.3707	4.1686
3.3685	4.1839
3.3663	4.1964
3.3641	4.204
3.362	4.2064
3.3598	4.2045
3.3576	4.2002
3.3554	4.197
3.3533	4.1985
3.3511	4.2073
3.3489	4.2251
3.3468	4.2528
3.3446	4.2892
3.3425	4.3318
3.3403	4.3768
3.3382	4.42
3.336	4.4588
3.3339	4.4913
3.3317	4.5167
3.3296	4.5351
3.3274	4.5468
3.3253	4.5521
3.3232	4.5519
3.321	4.5473
3.3189	4.5406
3.3168	4.5349
3.3147	4.5327
3.3126	4.5349
3.3104	4.5403
3.3083	4.5471
3.3062	4.5536
3.3041	4.5581
3.302	4.5617
3.2999	4.5655
3.2978	4.572
3.2957	4.5813
3.2936	4.5913
3.2915	4.5997
3.2894	4.604
3.2874	4.6024
3.2853	4.5949
3.2832	4.5839
3.2811	4.5743
3.279	4.5691
3.277	4.5698
3.2749	4.5758
3.2728	4.5853
3.2708	4.5959
3.2687	4.6047
3.2666	4.6115
3.2646	4.6162
3.2625	4.6193
3.2605	4.6222
3.2584	4.6253
3.2564	4.6303
3.2543	4.6371
3.2523	4.6462
3.2503	4.6567
3.2482	4.667
3.2462	4.6751
3.2442	4.6801
3.2421	4.6816
3.2401	4.6806
3.2381	4.6784
3.2361	4.6772
3.234	4.6774
3.232	4.6791
3.23	4.6806
3.228	4.6813
3.226	4.6796
3.224	4.6753
3.222	4.6684
3.22	4.6603
3.218	4.653
3.216	4.6474
3.214	4.6435
3.212	4.6411
3.21	4.6392
3.208	4.6363
3.206	4.6318
3.204	4.626
3.2021	4.62
3.2001	4.614
3.1981	4.6093
3.1961	4.6064
3.1942	4.6055
3.1922	4.6057
3.1902	4.6057
3.1883	4.6042
3.1863	4.6002
3.1844	4.5935
3.1824	4.5846
3.1805	4.5755
3.1785	4.5674
3.1766	4.5617
3.1746	4.5581
3.1727	4.5559
3.1707	4.5543
3.1688	4.5521
3.1669	4.5485
3.1649	4.543
3.163	4.5353
3.1611	4.526
3.1591	4.5146
3.1572	4.5016
3.1553	4.4882
3.1534	4.4761
3.1515	4.4663
3.1495	4.459
3.1476	4.4555
3.1457	4.4543
3.1438	4.4535
3.1419	4.4507
3.14	4.4452
3.1381	4.4368
3.1362	4.4265
3.1343	4.4153
3.1324	4.405
3.1305	4.3961
3.1286	4.3887
3.1268	4.3823
3.1249	4.3763
3.123	4.3707
3.1211	4.365
3.1192	4.3587
3.1174	4.3506
3.1155	4.3394
3.1136	4.3253
3.1117	4.3102
3.1099	4.2963
3.108	4.2853
3.1061	4.2784
3.1043	4.2746
3.1024	4.2712
3.1006	4.2659
3.0987	4.259
3.0969	4.2516
3.095	4.2444
3.0932	4.2399
3.0913	4.2397
3.0895	4.243
3.0876	4.2478
3.0858	4.2516
3.084	4.253
3.0821	4.2511
3.0803	4.2452
3.0785	4.2372
3.0766	4.2291
3.0748	4.2217
3.073	4.215
3.0712	4.21
3.0694	4.2057
3.0675	4.2016
3.0657	4.197
3.0639	4.1922
3.0621	4.1872
3.0603	4.1813
3.0585	4.1738
3.0567	4.1652
3.0549	4.1554
3.0531	4.1449
3.0513	4.1348
3.0495	4.1267
3.0477	4.1215
3.0459	4.1188
3.0441	4.1185
3.0423	4.1195
3.0406	4.1207
3.0388	4.1212
3.037	4.121
3.0352	4.1202
3.0334	4.119
3.0317	4.1164
3.0299	4.1121
3.0281	4.1047
3.0264	4.0941
3.0246	4.082
3.0228	4.0707
3.0211	4.0638
3.0193	4.0619
3.0176	4.0657
3.0158	4.0739
3.014	4.0829
3.0123	4.0903
3.0105	4.0949
3.0088	4.0968
3.007	4.0966
3.0053	4.0949
3.0036	4.094
3.0018	4.0946
3.0001	4.0971
2.9984	4.1009
2.9966	4.1061
2.9949	4.1126
2.9932	4.1181
2.9914	4.1222
2.9897	4.1245
2.988	4.125
2.9863	4.1243
2.9845	4.1224
2.9828	4.1217
2.9811	4.1236
2.9794	4.1288
2.9777	4.1378
2.976	4.1502
2.9743	4.1647
2.9726	4.1793
2.9709	4.1906
2.9692	4.1968
2.9675	4.1977
2.9658	4.193
2.9641	4.1844
2.9624	4.1753
2.9607	4.1688
2.959	4.1667
2.9573	4.1688
2.9556	4.1748
2.9539	4.1831
2.9523	4.192
2.9506	4.2007
2.9489	4.2083
2.9472	4.2143
2.9455	4.2188
2.9439	4.2219
2.9422	4.2241
2.9405	4.2251
2.9389	4.2263
2.9372	4.2291
2.9355	4.2341
2.9339	4.2418
2.9322	4.2513
2.9306	4.2609
2.9289	4.2669
2.9272	4.2669
2.9256	4.2606
2.9239	4.25
2.9223	4.2382
2.9207	4.2296
2.919	4.2279
2.9174	4.2344
2.9157	4.2468
2.9141	4.2619
2.9124	4.2765
2.9108	4.2887
2.9092	4.2973
2.9075	4.3021
2.9059	4.3043
2.9043	4.3047
2.9027	4.3043
2.901	4.3038
2.8994	4.304
2.8978	4.3056
2.8962	4.3088
2.8946	4.3134
2.8929	4.3197
2.8913	4.3284
2.8897	4.3387
2.8881	4.3502
2.8865	4.3617
2.8849	4.372
2.8833	4.3791
2.8817	4.3825
2.8801	4.3831
2.8785	4.383
2.8769	4.3836
2.8753	4.3868
2.8737	4.393
2.8721	4.4016
2.8705	4.411
2.8689	4.4188
2.8673	4.4238
2.8658	4.4263
2.8642	4.4268
2.8626	4.4274
2.861	4.4294
2.8594	4.4339
2.8579	4.4411
2.8563	4.4495
2.8547	4.4571
2.8531	4.4633
2.8516	4.4681
2.85	4.4712
2.8484	4.4736
2.8469	4.4761
2.8453	4.4796
2.8437	4.4837
2.8422	4.4875
2.8406	4.4904
2.8391	4.4918
2.8375	4.4908
2.836	4.488
2.8344	4.4842
2.8329	4.4809
2.8313	4.4794
2.8298	4.4791
2.8282	4.4796
2.8267	4.4784
2.8252	4.4744
2.8236	4.4658
2.8221	4.4528
2.8205	4.438
2.819	4.4231
2.8175	4.4095
2.8159	4.3982
2.8144	4.3894
2.8129	4.382
2.8114	4.3743
2.8098	4.3655
2.8083	4.3554
2.8068	4.3439
2.8053	4.3313
2.8038	4.3181
2.8022	4.3056
2.8007	4.2937
2.7992	4.2817
2.7977	4.2696
2.7962	4.2561
2.7947	4.2399
2.7932	4.2193
2.7917	4.1927
2.7902	4.16
2.7887	4.1212
2.7872	4.0779
2.7857	4.031
2.7842	3.981
2.7827	3.9274
2.7812	3.8702
2.7797	3.8099
2.7782	3.7497
2.7767	3.6924
2.7752	3.641
2.7738	3.5955
2.7723	3.5551
2.7708	3.5163
2.7693	3.4771
2.7678	3.437
2.7664	3.3965
2.7649	3.357
2.7634	3.3199
2.7619	3.285
2.7605	3.2522
2.759	3.2228
2.7575	3.1989
2.7561	3.184
2.7546	3.1814
2.7531	3.1924
2.7517	3.2164
2.7502	3.2489
2.7488	3.2833
2.7473	3.3142
2.7458	3.3372
2.7444	3.3518
2.7429	3.3616
2.7415	3.3731
2.74	3.3932
2.7386	3.4262
2.7371	3.473
2.7357	3.5312
2.7343	3.596
2.7328	3.6635
2.7314	3.7308
2.7299	3.7977
2.7285	3.8662
2.7271	3.9394
2.7256	4.0209
2.7242	4.1152
2.7228	4.2258
2.7213	4.3533
2.7199	4.4966
2.7185	4.6509
2.7171	4.8102
2.7156	4.9672
2.7142	5.1168
2.7128	5.2582
2.7114	5.3935
2.71	5.5256
2.7085	5.6572
2.7071	5.79
2.7057	5.9221
2.7043	6.0491
2.7029	6.1657
2.7015	6.2681
2.7001	6.3537
2.6987	6.4233
2.6973	6.4815
2.6959	6.5348
2.6945	6.5896
2.6931	6.6492
2.6917	6.7145
2.6903	6.7837
2.6889	6.8519
2.6875	6.9136
2.6861	6.9654
2.6847	7.0054
2.6833	7.0335
2.6819	7.0509
2.6805	7.0624
2.6791	7.072
2.6778	7.0818
2.6764	7.0911
2.675	7.098
2.6736	7.0995
2.6722	7.0937
2.6709	7.0837
2.6695	7.0763
2.6681	7.0791
2.6667	7.0978
2.6654	7.1329
2.664	7.1804
2.6626	7.232
2.6613	7.2794
2.6599	7.3167
2.6585	7.3424
2.6572	7.3581
2.6558	7.3686
2.6545	7.3789
2.6531	7.3918
2.6517	7.4086
2.6504	7.4275
2.649	7.4456
2.6477	7.4605
2.6463	7.4705
2.645	7.4758
2.6436	7.4787
2.6423	7.4811
2.6409	7.484
2.6396	7.4859
2.6382	7.484
2.6369	7.4763
2.6356	7.4615
2.6342	7.4409
2.6329	7.4204
2.6315	7.406
2.6302	7.4026
2.6289	7.4117
2.6275	7.4302
2.6262	7.4509
2.6249	7.4657
2.6236	7.4677
2.6222	7.4569
2.6209	7.4378
2.6196	7.4184
2.6183	7.4076
2.6169	7.4103
2.6156	7.4263
2.6143	7.4488
2.613	7.4677
2.6117	7.4753
2.6103	7.4694
2.609	7.4536
2.6077	7.4373
2.6064	7.4302
2.6051	7.4385
2.6038	7.4607
2.6025	7.4866
2.6012	7.5039
2.5999	7.5031
2.5986	7.4838
2.5973	7.4541
2.596	7.4289
2.5947	7.4215
2.5934	7.437
2.5921	7.4697
2.5908	7.5062
2.5895	7.5335
2.5882	7.5431
2.5869	7.5359
2.5856	7.5203
2.5843	7.5069
2.583	7.5039
2.5817	7.5127
2.5805	7.5289
2.5792	7.5459
2.5779	7.5586
2.5766	7.5646
2.5753	7.5665
2.5741	7.5686
2.5728	7.5749
2.5715	7.5857
2.5702	7.5976
2.569	7.6067
2.5677	7.6079
2.5664	7.5998
2.5651	7.5857
2.5639	7.5718
2.5626	7.5653
2.5613	7.5711
2.5601	7.588
2.5588	7.6115
2.5575	7.6335
2.5563	7.6471
2.555	7.6495
2.5538	7.6426
2.5525	7.6314
2.5513	7.6206
2.55	7.6126
2.5487	7.6079
2.5475	7.6048
2.5462	7.602
2.545	7.5998
2.5437	7.599
2.5425	7.6003
2.5413	7.6028
2.54	7.6058
2.5388	7.6079
2.5375	7.6096
2.5363	7.6103
2.535	7.611
2.5338	7.612
2.5326	7.6129
2.5313	7.6139
2.5301	7.6153
2.5289	7.6189
2.5276	7.6266
2.5264	7.638
2.5252	7.6529
2.5239	7.6689
2.5227	7.6842
2.5215	7.6964
2.5202	7.7039
2.519	7.706
2.5178	7.7046
2.5166	7.7004
2.5154	7.6955
2.5141	7.6928
2.5129	7.695
2.5117	7.7017
2.5105	7.7112
2.5093	7.721
2.5081	7.7283
2.5068	7.7299
2.5056	7.7253
2.5044	7.7172
2.5032	7.7089
2.502	7.7029
2.5008	7.7007
2.4996	7.7029
2.4984	7.7077
2.4972	7.7125
2.496	7.7165
2.4948	7.7197
2.4936	7.7225
2.4924	7.7263
2.4912	7.7316
2.49	7.7386
2.4888	7.7459
2.4876	7.7527
2.4864	7.7589
2.4852	7.7643
2.484	7.7682
2.4828	7.7706
2.4816	7.7716
2.4805	7.7713
2.4793	7.7711
2.4781	7.7728
2.4769	7.7773
2.4757	7.7842
2.4745	7.7912
2.4734	7.7967
2.4722	7.7993
2.471	7.799
2.4698	7.7988
2.4686	7.8003
2.4675	7.8043
2.4663	7.8103
2.4651	7.8163
2.464	7.8199
2.4628	7.8208
2.4616	7.8196
2.4604	7.8189
2.4593	7.8194
2.4581	7.8216
2.4569	7.8261
2.4558	7.8316
2.4546	7.8374
2.4535	7.8426
2.4523	7.8483
2.4511	7.8538
2.45	7.8584
2.4488	7.862
2.4477	7.8656
2.4465	7.8694
2.4454	7.873
2.4442	7.8782
2.4431	7.8852
2.4419	7.8933
2.4408	7.901
2.4396	7.9072
2.4385	7.9104
2.4373	7.9089
2.4362	7.9031
2.435	7.8955
2.4339	7.8885
2.4327	7.8847
2.4316	7.8852
2.4305	7.8885
2.4293	7.8938
2.4282	7.8983
2.427	7.9019
2.4259	7.9048
2.4248	7.9079
2.4236	7.9117
2.4225	7.9163
2.4214	7.9204
2.4202	7.924
2.4191	7.9278
2.418	7.9328
2.4169	7.9395
2.4157	7.9479
2.4146	7.9575
2.4135	7.967
2.4124	7.9747
2.4112	7.9799
2.4101	7.9833
2.409	7.9849
2.4079	7.9861
2.4068	7.9871
2.4056	7.9897
2.4045	7.9941
2.4034	8
2.4023	8.0072
2.4012	8.0158
2.4001	8.0247
2.399	8.0329
2.3979	8.039
2.3967	8.0432
2.3956	8.0435
2.3945	8.0407
2.3934	8.035
2.3923	8.0287
2.3912	8.0239
2.3901	8.0226
2.389	8.0254
2.3879	8.0316
2.3868	8.0392
2.3857	8.0462
2.3846	8.051
2.3835	8.0534
2.3824	8.0541
2.3813	8.0534
2.3802	8.0515
2.3791	8.0474
2.3781	8.0407
2.377	8.0316
2.3759	8.023
2.3748	8.0178
2.3737	8.0175
2.3726	8.0233
2.3715	8.0329
2.3704	8.0419
2.3694	8.0457
2.3683	8.0429
2.3672	8.0345
2.3661	8.0247
2.365	8.018
2.364	8.0185
2.3629	8.0266
2.3618	8.0385
2.3607	8.0495
2.3597	8.0555
2.3586	8.0543
2.3575	8.0465
2.3564	8.0345
2.3554	8.023
2.3543	8.0146
2.3532	8.011
2.3522	8.0125
2.3511	8.0185
2.35	8.0269
2.349	8.0345
2.3479	8.0385
2.3468	8.0388
2.3458	8.0354
2.3447	8.0304
2.3436	8.0278
2.3426	8.0304
2.3415	8.0381
2.3405	8.05
2.3394	8.0637
2.3384	8.0754
2.3373	8.0825
2.3363	8.0845
2.3352	8.0812
2.3342	8.0735
2.3331	8.0637
2.3321	8.0555
2.331	8.0513
2.33	8.0515
2.3289	8.0565
2.3279	8.0658
2.3268	8.0782
2.3258	8.0926
2.3247	8.1082
2.3237	8.1237
2.3226	8.1369
2.3216	8.1441
2.3206	8.1443
2.3195	8.1383
2.3185	8.1288
2.3175	8.1199
2.3164	8.1156
2.3154	8.1168
2.3144	8.1218
2.3133	8.1283
2.3123	8.1338
2.3113	8.1381
2.3102	8.1416
2.3092	8.1453
2.3082	8.1489
2.3071	8.1517
2.3061	8.1529
2.3051	8.1519
2.3041	8.1496
2.303	8.1479
2.302	8.1489
2.301	8.1529
2.3	8.1594
2.299	8.1673
2.2979	8.1756
2.2969	8.1826
2.2959	8.1883
2.2949	8.1939
2.2939	8.1991
2.2929	8.2039
2.2918	8.2085
2.2908	8.2135
2.2898	8.2188
2.2888	8.2235
2.2878	8.2286
2.2868	8.2338
2.2858	8.2381
2.2848	8.2397
2.2838	8.2391
2.2828	8.2359
2.2818	8.2307
2.2808	8.224
2.2798	8.2192
2.2787	8.2183
2.2777	8.2216
2.2767	8.2283
2.2757	8.2374
2.2747	8.245
2.2738	8.2487
2.2728	8.2472
2.2718	8.2419
2.2708	8.235
2.2698	8.2286
2.2688	8.2247
2.2678	8.2243
2.2668	8.2264
2.2658	8.2302
2.2648	8.2359
2.2638	8.2436
2.2628	8.2527
2.2618	8.2623
2.2609	8.2711
2.2599	8.2779
2.2589	8.2807
2.2579	8.2797
2.2569	8.2754
2.2559	8.2688
2.255	8.2623
2.254	8.2585
2.253	8.2594
2.252	8.2654
2.251	8.2747
2.2501	8.285
2.2491	8.2922
2.2481	8.2945
2.2471	8.292
2.2462	8.2867
2.2452	8.2804
2.2442	8.2749
2.2433	8.2704
2.2423	8.2678
2.2413	8.2671
2.2403	8.2685
2.2394	8.2728
2.2384	8.2802
2.2374	8.289
2.2365	8.297
2.2355	8.3018
2.2345	8.3013
2.2336	8.2958
2.2326	8.2864
2.2317	8.2761
2.2307	8.268
2.2297	8.2633
2.2288	8.2625
2.2278	8.2639
2.2269	8.2651
2.2259	8.2646
2.225	8.262
2.224	8.2577
2.2231	8.2537
2.2221	8.2505
2.2211	8.2493
2.2202	8.2495
2.2192	8.2513
2.2183	8.2548
2.2173	8.2591
2.2164	8.2644
2.2155	8.2699
2.2145	8.2737
2.2136	8.2752
2.2126	8.2739
2.2117	8.2711
2.2107	8.2683
2.2098	8.2673
2.2088	8.2683
2.2079	8.2704
2.207	8.2711
2.206	8.2689
2.2051	8.263
2.2041	8.2546
2.2032	8.2477
2.2023	8.2467
2.2013	8.2541
2.2004	8.2697
2.1995	8.2895
2.1985	8.3079
2.1976	8.3192
2.1967	8.3207
2.1957	8.3134
2.1948	8.3036
2.1939	8.2975
2.193	8.2998
2.192	8.3113
2.1911	8.3288
2.1902	8.3472
2.1893	8.3614
2.1883	8.3685
2.1874	8.3695
2.1865	8.367
2.1856	8.363
2.1846	8.3587
2.1837	8.3558
2.1828	8.3544
2.1819	8.3549
2.181	8.3577
2.18	8.3632
2.1791	8.3707
2.1782	8.3773
2.1773	8.3828
2.1764	8.3881
2.1755	8.3934
2.1746	8.3994
2.1736	8.4049
2.1727	8.4094
2.1718	8.413
2.1709	8.4154
2.17	8.4183
2.1691	8.425
2.1682	8.4364
2.1673	8.4505
2.1664	8.464
2.1655	8.4738
2.1646	8.4788
2.1637	8.4766
2.1628	8.4666
2.1619	8.4513
2.161	8.4324
2.1601	8.413
2.1592	8.3982
2.1583	8.3941
2.1574	8.4027
2.1565	8.4218
2.1556	8.4467
2.1547	8.4726
2.1538	8.495
2.1529	8.5111
2.152	8.5209
2.1511	8.5245
2.1502	8.5214
2.1493	8.5111
2.1484	8.495
2.1475	8.4781
2.1466	8.4649
2.1458	8.4595
2.1449	8.4628
2.144	8.4721
2.1431	8.4829
2.1422	8.49
2.1413	8.491
2.1404	8.4862
2.1396	8.4776
2.1387	8.4693
2.1378	8.4645
2.1369	8.4647
2.136	8.4699
2.1352	8.4779
2.1343	8.485
2.1334	8.4895
2.1325	8.4907
2.1316	8.49
2.1308	8.4898
2.1299	8.4912
2.129	8.4945
2.1281	8.4972
2.1273	8.496
2.1264	8.4912
2.1255	8.485
2.1247	8.4814
2.1238	8.4845
2.1229	8.4955
2.122	8.513
2.1212	8.5314
2.1203	8.5453
2.1194	8.5513
2.1186	8.5484
2.1177	8.537
2.1168	8.5199
2.116	8.5018
2.1151	8.4874
2.1143	8.4809
2.1134	8.4843
2.1125	8.4977
2.1117	8.5166
2.1108	8.5343
2.11	8.5455
2.1091	8.5486
2.1082	8.5441
2.1074	8.5353
2.1065	8.5252
2.1057	8.5164
2.1048	8.5088
2.104	8.5027
2.1031	8.4998
2.1023	8.5025
2.1014	8.5111
2.1005	8.5245
2.0997	8.5395
2.0988	8.5518
2.098	8.5568
2.0971	8.5546
2.0963	8.547
2.0955	8.537
2.0946	8.5285
2.0938	8.5254
2.0929	8.5297
2.0921	8.54
2.0912	8.5558
2.0904	8.575
2.0895	8.5922
2.0887	8.6042
2.0879	8.6089
2.087	8.6049
2.0862	8.5946
2.0853	8.5812
2.0845	8.5674
2.0837	8.5664
2.0828	8.5669
2.082	8.5697
2.0812	8.6082
2.0803	8.582
2.0795	8.6149
2.076	8.6127
2.072	8.6105
2.068	8.6967
2.064	8.6703
2.06	8.6504
2.056	8.6593
2.052	8.6993
2.048	8.7102
2.044	8.6792
2.04	8.6881
2.036	8.7241
2.032	8.6906
2.028	8.6619
2.024	8.7264
2.02	8.7916
2.016	8.8214
2.012	8.7471
2.008	8.7539
2.004	8.6823
2	8.657
1.996	8.7087
1.992	8.7098
1.988	8.7349
1.984	8.6553
1.98	8.6746
1.976	8.7353
1.972	8.6583
1.968	8.7788
1.964	8.7539
1.96	8.7144
1.956	8.7856
1.952	8.7558
1.948	8.7891
1.944	8.7272
1.94	8.7334
1.936	8.6514
1.932	8.6856
1.928	8.7015
1.924	8.7524
1.92	8.7422
1.916	8.7518
1.912	8.6715
1.908	8.7619
1.904	8.8898
1.9	8.7634
1.896	8.8191
1.892	8.8772
1.888	8.8972
1.884	8.8917
1.88	8.8918
1.876	8.933
1.872	8.9572
1.868	8.9593
1.864	8.9482
1.86	9.0239
1.856	9.0146
1.852	9.0253
1.848	9.027
1.844	9.0482
1.84	9.0861
1.836	9.1109
1.832	9.1589
1.828	9.1207
1.824	9.1105
1.82	9.0984
1.816	9.1546
1.812	9.1226
1.808	9.0979
1.804	9.1473
1.8	9.1118
1.796	9.1312
1.792	9.1506
1.788	9.1161
1.784	9.1483
1.78	9.2113
1.776	9.1269
1.772	9.1033
1.768	9.1764
1.764	9.1961
1.76	9.1487
1.756	9.2134
1.752	9.1897
1.748	9.2384
1.744	9.2582
1.74	9.1242
1.736	9.0389
1.732	9.1452
1.728	9.1673
1.724	9.2234
1.72	9.2045
1.716	9.1974
1.712	9.2222
1.708	9.2297
1.704	9.1974
1.7	9.2195
1.696	9.3228
1.692	9.2132
1.688	9.2518
1.684	9.2642
1.68	9.2905
1.676	9.2657
1.672	9.2857
1.668	9.2375
1.664	9.2531
1.66	9.3517
1.656	9.3774
1.652	9.3712
1.648	9.336
1.644	9.2916
1.64	9.2822
1.636	9.2477
1.632	9.2697
1.628	9.3299
1.624	9.2655
1.62	9.3016
1.616	9.3425
1.612	9.3645
1.608	9.4202
1.604	9.3849
1.6	9.3173
1.596	9.2925
1.592	9.3475
1.588	9.305
1.584	9.3805
1.58	9.3728
1.576	9.3652
1.572	9.3854
1.568	9.3803
1.564	9.3671
1.56	9.3324
1.556	9.3053
1.552	9.4228
1.548	9.3404
1.544	9.4386
1.54	9.4185
1.536	9.4416
1.532	9.4117
1.528	9.4062
1.524	9.4556
1.52	9.4433
1.516	9.3991
1.512	9.4495
1.508	9.4091
1.504	9.4396
1.5	9.4548
1.496	9.442
1.492	9.3353
1.488	9.4241
1.484	9.3864
1.48	9.4269
1.476	9.3965
1.472	9.4653
1.468	9.4266
1.464	9.4066
1.46	9.3639
1.456	9.3991
1.452	9.412
1.448	9.4883
1.444	9.3882
1.44	9.4885
1.436	9.46
1.432	9.478
1.428	9.478
1.424	9.2906
1.42	9.2563
1.416	9.4064
1.412	9.3899
1.408	9.4727
1.404	9.4126
1.4	9.4518
1.396	9.5062
1.392	9.4092
1.388	9.4976
1.384	9.444
1.38	9.3584
1.376	9.4649
1.372	9.4832
1.368	9.5373
1.364	9.3615
1.36	9.3748
1.356	9.4518
1.352	9.5056
1.348	9.4918
1.344	9.4649
1.34	9.4416
1.336	9.4893
1.332	9.4352
1.328	9.5265
1.324	9.4239
1.32	9.5141
1.316	9.54
1.312	9.4548
1.308	9.4931
1.304	9.5363
1.3	9.5153
1.296	9.5662
1.292	9.5476
1.288	9.57
1.284	9.4982
1.28	9.3514
1.276	9.4656
1.272	9.4507
1.268	9.3762
1.264	9.4548
1.26	9.4939
1.256	9.4598
1.252	9.4273
1.248	9.4857
1.244	9.4751
1.24	9.48
1.236	9.3915
1.232	9.4075
1.228	9.4426
1.224	9.4329
1.22	9.4003
1.216	9.5037
1.212	9.4051
1.208	9.3729
1.204	9.3396
1.2	9.432
1.196	9.3835
1.192	9.3701
1.188	9.3276
1.184	9.3523
1.18	9.3216
1.176	9.2478
1.172	9.2523
1.168	9.3233
1.164	9.3324
1.16	9.3213
1.156	9.2803
1.152	9.2333
1.148	9.2871
1.144	9.3526
1.14	9.3708
1.136	9.3296
1.132	9.3215
1.128	9.2892
1.124	9.3572
1.12	9.2347
1.116	9.2347
1.112	9.1722
1.108	9.2322
1.104	9.2513
1.1	9.2557
1.096	9.2436
1.092	9.3302
1.088	9.2269
1.084	9.2299
1.08	9.2218
1.076	9.2356
1.072	9.2689
1.068	9.1572
1.064	9.2188
1.06	9.1582
1.056	9.2455
1.052	9.2507
1.048	9.2781
1.044	9.268
1.04	9.1936
1.036	9.2092
1.032	9.2163
1.028	9.2955
1.024	9.2202
1.02	9.2152
1.016	9.1958
1.012	9.1791
1.008	9.0479
1.004	9.1328
1	9.1938
0.996	9.0647
0.992	9.1763
0.988	9.1986
0.984	9.1174
0.98	9.0997
0.976	9.0399
0.972	9.1327
0.968	9.1792
0.964	9.1286
0.96	9.0465
0.956	9.1442
0.952	9.1534
0.948	9.0176
0.944	8.9687
0.94	9.0397
0.936	8.96
0.932	9.0999
0.928	8.9867
0.924	8.989
0.92	9.029
0.916	9.0487
0.912	9.1285
0.908	8.9469
0.904	9.0336
0.9	8.9646
0.896	8.9671
0.892	8.9313
0.888	9.0542
0.884	9.0923
0.88	9.1204
0.876	9.0896
0.872	9.0345
0.868	9.0127
0.864	9.0225
0.86	8.9699
0.856	8.8843
0.852	8.8281
0.848	8.9374
0.844	8.9493
0.84	8.9622
0.836	8.8151
0.832	8.8834
0.828	8.8857
0.824	8.9319
0.82	8.8585
0.816	8.8185
0.812	8.6964
0.808	8.8092
0.804	8.9571
0.8	8.9046
0.799	8.9068
0.798	8.9077
0.797	8.8703
0.796	9.0098
0.795	8.9307
0.794	8.8754
0.793	8.7746
0.792	8.783
0.791	8.783
0.79	8.8332
0.789	8.8904
0.788	8.8145
0.787	8.9855
0.786	8.9673
0.785	8.8614
0.784	8.8336
0.783	8.874
0.782	8.8248
0.781	8.7502
0.78	8.7932
0.779	8.7892
0.778	8.8207
0.777	8.862
0.776	8.8192
0.775	8.7877
0.774	8.7918
0.773	8.8662
0.772	8.7995
0.771	8.8688
0.77	8.8332
0.769	8.7877
0.768	8.7954
0.767	8.7862
0.766	8.8254
0.765	8.8577
0.764	8.7913
0.763	8.7991
0.762	8.7258
0.761	8.8054
0.76	8.8211
0.759	8.8343
0.758	8.7438
0.757	8.6272
0.756	8.754
0.755	8.7934
0.754	8.7761
0.753	8.7295
0.752	8.8181
0.751	8.7106
0.75	8.6322
0.749	8.7552
0.748	8.7031
0.747	8.7106
0.746	8.7106
0.745	8.8731
0.744	8.7447
0.743	8.6842
0.742	8.6609
0.741	8.6449
0.74	8.7526
0.739	8.8972
0.738	8.8562
0.737	8.6143
0.736	8.6062
0.735	8.7704
0.734	8.6945
0.733	8.7024
0.732	8.7563
0.731	8.5396
0.73	8.6261
0.729	8.7022
0.728	8.7168
0.727	8.706
0.726	8.6627
0.725	8.6612
0.724	8.706
0.723	8.6445
0.722	8.6853
0.721	8.6443
0.72	8.6324
0.719	8.6235
0.718	8.6645
0.717	8.6421
0.716	8.723
0.715	8.6914
0.714	8.5997
0.713	8.6933
0.712	8.6725
0.711	8.6489
0.71	8.6252
0.709	8.6402
0.708	8.5589
0.707	8.5456
0.706	8.5762
0.705	8.612
0.704	8.5777
0.703	8.4942
0.702	8.51
0.701	8.6182
0.7	8.5513
0.699	8.5356
0.698	8.4499
0.697	8.4425
0.696	8.4735
0.695	8.542
0.694	8.5202
0.693	8.474
0.692	8.4901
0.691	8.4352
0.69	8.4436
0.689	8.5149
0.688	8.4463
0.687	8.416
0.686	8.4602
0.685	8.4901
0.684	8.4107
0.683	8.408
0.682	8.433
0.681	8.3536
0.68	8.3754
0.679	8.342
0.678	8.2758
0.677	8.397
0.676	8.3148
0.675	8.3447
0.674	8.3923
0.673	8.3943
0.672	8.3505
0.671	8.2684
0.67	8.392
0.669	8.2737
0.668	8.3037
0.667	8.3504
0.666	8.3423
0.665	8.2903
0.664	8.2572
0.663	8.2989
0.662	8.3433
0.661	8.255
0.66	8.255
0.659	8.2187
0.658	8.1503
0.657	8.1424
0.656	8.1338
0.655	8.1364
0.654	8.1835
0.653	8.0543
0.652	8.0907
0.651	8.0881
0.65	8.033
0.649	8.0466
0.648	8.1371
0.647	8.1477
0.646	8.1118
0.645	8.1039
0.644	8.1092
0.643	8.1536
0.642	8.1231
0.641	8.1616
0.64	8.159
0.639	8.1098
0.638	8.0602
0.637	8.0277
0.636	8.0773
0.635	7.9379
0.634	7.8886
0.633	7.8963
0.632	7.9682
0.631	7.9997
0.63	7.9586
0.629	7.975
0.628	7.9768
0.627	8.0004
0.626	7.9638
0.625	7.9664
0.624	7.9039
0.623	7.9872
0.622	7.9488
0.621	7.9612
0.62	7.9541
0.619	7.9208
0.618	7.8543
0.617	7.8123
0.616	7.8327
0.615	7.8404
0.614	7.8068
0.613	7.8043
0.612	7.8868
0.611	7.8196
0.61	7.7695
0.609	7.8006
0.608	7.7605
0.607	7.7143
0.606	7.7443
0.605	7.6795
0.604	7.732
0.603	7.7535
0.602	7.6871
0.601	7.7124
0.6	7.6669
0.599	7.6902
0.598	7.6923
0.597	7.6088
0.596	7.616
0.595	7.5941
0.594	7.7113
0.593	7.6821
0.592	7.6063
0.591	7.5202
0.59	7.5052
0.589	7.5251
0.588	7.5348
0.587	7.5768
0.586	7.5669
0.585	7.5274
0.584	7.4486
0.583	7.552
0.582	7.5616
0.581	7.5741
0.58	7.608
0.579	7.5616
0.578	7.6131
0.577	7.5666
0.576	7.5247
0.575	7.5387
0.574	7.495
0.573	7.485
0.572	7.4224
0.571	7.4417
0.57	7.4705
0.569	7.4296
0.568	7.4224
0.567	7.3465
0.566	7.3607
0.565	7.3267
0.564	7.3715
0.563	7.3677
0.562	7.3787
0.561	7.3479
0.56	7.2455
0.559	7.2182
0.558	7.1292
0.557	7.122
0.556	7.1336
0.555	7.1823
0.554	7.189
0.553	7.111
0.552	7.1621
0.551	7.1417
0.55	7.1223
0.549	7.0798
0.548	7.0526
0.547	7.1008
0.546	7.0175
0.545	7.0701
0.544	7.011
0.543	7.0494
0.542	6.9906
0.541	7.0657
0.54	7.079
0.539	6.9877
0.538	7.0411
0.537	6.8831
0.536	6.9561
0.535	7.0096
0.534	6.9108
0.533	6.8382
0.532	6.8154
0.531	6.779
0.53	6.7384
0.529	6.779
0.528	6.787
0.527	6.7766
0.526	6.7323
0.525	6.696
0.524	6.8175
0.523	6.7769
0.522	6.694
0.521	6.7
0.52	6.7487
0.519	6.6999
0.518	6.6595
0.517	6.6816
0.516	6.6877
0.515	6.6816
0.514	6.6308
0.513	6.6714
0.512	6.6347
0.511	6.6387
0.51	6.547
0.509	6.5914
0.508	6.6367
0.507	6.5818
0.506	6.5527
0.505	6.472
0.504	6.3764
0.503	6.4079
0.502	6.3764
0.501	6.4259
0.5	6.3411
0.499	6.2659
0.498	6.3117
0.497	6.3924
0.496	6.3169
0.495	6.3138
0.494	6.319
0.493	6.3242
0.492	6.2665
0.491	6.28
0.49	6.2366
0.489	6.177
0.488	6.1705
0.487	6.1802
0.486	6.1117
0.485	6.1934
0.484	6.0784
0.483	6.036
0.482	6.036
0.481	6.0591
0.48	6.0477
0.479	6.106
0.478	6.0696
0.477	6.1161
0.476	5.9806
0.475	6.047
0.474	6.004
0.473	6.0055
0.472	5.9666
0.471	5.9316
0.47	5.9204
0.469	5.9176
0.468	5.9024
0.467	5.8076
0.466	5.8058
0.465	5.8051
0.464	5.7491
0.463	5.7482
0.462	5.7301
0.461	5.6369
0.46	5.7088
0.459	5.6607
0.458	5.8116
0.457	5.7261
0.456	5.7142
0.455	5.7089
0.454	5.6223
0.453	5.5398
0.452	5.5398
0.451	5.4051
0.45	5.3556
0.449	5.4054
0.448	5.4024
0.447	5.3539
0.446	5.2966
0.445	5.2993
0.444	5.3406
0.443	5.2912
0.442	5.2956
0.441	5.1694
0.44	5.1637
0.439	5.1965
0.438	5.1545
0.437	5.157
0.436	5.1574
0.435	4.8729
0.434	5.0863
0.433	5.0389
0.432	4.9825
0.431	5.0149
0.43	5.0079
0.429	4.962
0.428	5.0418
0.427	4.9069
0.426	4.8923
0.425	4.8931
0.424	4.8931
0.423	4.7488
0.422	4.6126
0.421	4.6525
0.42	4.7887
0.419	4.4976
0.418	4.5716
0.417	4.6465
0.416	4.5498
0.415	4.5421
0.414	4.543
0.413	4.5383
0.412	4.4447
0.411	4.4811
0.41	4.5935
0.409	4.633
0.408	4.5289
0.407	4.3958
0.406	4.4868
0.405	4.4295
0.404	4.2857
0.403	4.3251
0.402	4.2793
0.401	4.3181
0.4	4.265
