Name: Hydroxyapophyllite KCa_4Si_8O_20(OH,F).8H_2O
Type: Mineral
Class: Silicates
Subclass: Phyllosilicates
Particle Size: 45-125um
Sample No.: PS-22A
Owner: JPL
Wavelength range: IR
Origin: India, Maharashtra, Poona
Collected by Burminco
Description: 





Measurement: Hemispherical reflectance
First Column: X
Second Column: Y
X Units:  Wavelength (micrometers)
Y Units:  Reflectance (percent)
First X Value: 15.3853
Last X Value: 2.00032
Number of X Values: 2256
Additional information: ps22aa.txt
 
15.3853	1.34308
15.3397	1.2083
15.2945	1.3252
15.2495	1.51209
15.2048	1.52768
15.1603	1.40463
15.1161	1.23793
15.0722	1.34876
15.0285	1.71177
14.9851	1.80391
14.9419	1.85787
14.8989	2.03488
14.8563	1.83091
14.8138	1.76928
14.7716	2.02066
14.7296	2.18577
14.6879	2.26435
14.6464	2.34704
14.6052	2.5061
14.5641	2.50687
14.5233	2.80675
14.4828	3.13702
14.4424	3.1927
14.4023	3.17568
14.3624	3.19045
14.3227	3.31282
14.2833	3.57061
14.244	3.51127
14.205	3.44116
14.1662	3.47142
14.1276	3.42921
14.0892	3.5216
14.051	3.7183
14.0131	3.71125
13.9753	3.84688
13.9377	4.12605
13.9004	4.30331
13.8632	4.33376
13.8262	4.27743
13.7895	4.27671
13.7529	4.1689
13.7165	4.14482
13.6803	4.439
13.6443	4.56187
13.6085	4.57663
13.5729	4.6871
13.5374	4.89882
13.5022	4.9134
13.4671	4.98501
13.4322	5.04061
13.3975	5.05596
13.363	5.24079
13.3286	5.3912
13.2944	5.67373
13.2604	5.99373
13.2266	6.27797
13.193	6.62391
13.1595	6.94278
13.1262	7.15521
13.093	7.20654
13.06	6.82795
13.0272	5.99292
12.9946	5.31875
12.9621	4.95457
12.9298	4.64893
12.8976	4.53475
12.8656	4.61939
12.8337	4.7886
12.8021	4.85575
12.7705	4.9544
12.7391	5.13919
12.7079	5.23149
12.6769	5.35221
12.6459	5.33641
12.6152	4.97103
12.5845	4.61677
12.5541	4.1859
12.5238	3.55433
12.4936	3.07093
12.4635	2.56082
12.4337	2.0199
12.4039	1.76335
12.3743	1.65177
12.3448	1.61791
12.3155	1.48362
12.2863	1.39884
12.2573	1.57464
12.2284	1.86632
12.1996	1.95906
12.171	1.93703
12.1425	1.88572
12.1141	1.9768
12.0859	2.21698
12.0578	2.37663
12.0298	2.36412
12.0019	2.47061
11.9742	2.68537
11.9466	2.81895
11.9192	2.8076
11.8918	2.91507
11.8646	3.08016
11.8375	3.29778
11.8106	3.48993
11.7837	3.60779
11.757	3.65169
11.7304	3.70984
11.7039	3.86961
11.6776	4.10494
11.6513	4.18809
11.6252	4.20308
11.5992	4.28616
11.5733	4.4841
11.5475	4.70542
11.5219	4.68602
11.4963	4.7038
11.4709	4.89267
11.4455	4.99718
11.4203	5.08739
11.3952	5.06118
11.3702	5.0409
11.3454	5.17926
11.3206	5.41422
11.2959	5.5298
11.2714	5.44832
11.2469	5.50538
11.2226	5.68412
11.1983	5.85237
11.1742	6.03449
11.1502	6.0978
11.1263	6.20891
11.1024	6.36909
11.0787	6.43083
11.0551	6.38633
11.0316	6.35161
11.0081	6.38758
10.9848	6.50146
10.9616	6.69765
10.9385	6.89248
10.9154	6.98323
10.8925	6.99751
10.8697	7.18966
10.8469	7.37216
10.8243	7.38706
10.8017	7.45708
10.7793	7.74405
10.7569	7.90114
10.7346	7.7447
10.7125	7.65981
10.6904	7.86438
10.6684	8.07084
10.6465	8.29559
10.6247	8.33633
10.6029	8.30528
10.5813	8.40319
10.5597	8.52547
10.5383	8.61922
10.5169	8.72989
10.4956	8.84927
10.4744	9.03126
10.4533	9.19578
10.4323	9.24124
10.4113	9.44714
10.3904	9.69604
10.3697	9.85833
10.349	10.0935
10.3284	10.3427
10.3078	10.6049
10.2874	10.8155
10.267	10.9842
10.2467	11.3585
10.2265	11.7147
10.2064	11.9747
10.1863	12.4429
10.1663	13.0168
10.1464	13.4649
10.1266	14.0719
10.1069	14.9873
10.0872	15.9673
10.0676	16.9375
10.0481	18.1783
10.0287	19.6442
10.0093	21.2495
9.99005	23.1038
9.97084	25.263
9.95169	27.6704
9.93263	30.0461
9.91364	32.4436
9.89472	35.2861
9.87587	38.1579
9.8571	40.2969
9.83839	41.6144
9.81976	42.3787
9.80119	43.0213
9.78271	43.514
9.76428	43.6696
9.74592	43.6876
9.72764	43.5326
9.70943	43.3337
9.69128	43.2174
9.6732	43.2406
9.65518	43.3936
9.63724	43.3702
9.61935	43.3423
9.60155	43.2491
9.5838	43.03
9.56611	42.556
9.5485	42.0356
9.53094	41.5208
9.51345	40.8224
9.49604	39.81
9.47867	38.6378
9.46137	37.2718
9.44414	35.5648
9.42697	33.4238
9.40986	30.6992
9.39281	27.1525
9.37583	22.8183
9.35891	17.9493
9.34204	13.4022
9.32524	9.45459
9.3085	6.23896
9.29182	3.98788
9.27519	2.53763
9.25863	1.79813
9.24213	1.54345
9.22568	1.94617
9.2093	2.73454
9.19297	3.88914
9.17669	5.72141
9.16048	7.99208
9.14433	10.6867
9.12823	13.6243
9.11218	16.0266
9.0962	17.335
9.08027	17.7333
9.06439	17.2614
9.04858	15.9271
9.03281	14.1229
9.0171	11.9133
9.00145	9.30171
8.98585	7.10297
8.9703	5.77289
8.9548	5.37918
8.93937	5.87618
8.92398	6.97136
8.90865	8.40633
8.89337	9.373
8.87814	9.62332
8.86296	9.08536
8.84784	8.09962
8.83277	7.15051
8.81774	6.21176
8.80277	5.30731
8.78786	4.46684
8.77298	3.76963
8.75816	3.32404
8.7434	2.86787
8.72868	2.22861
8.714	1.66962
8.69938	1.45446
8.68481	1.25781
8.67029	0.932769
8.65581	0.677203
8.64139	0.449549
8.62701	0.385323
8.61268	0.367097
8.5984	0.238453
8.58416	0.229518
8.56997	0.293932
8.55583	0.23639
8.54174	0.0979558
8.52769	0.08371
8.51368	0.171937
8.49973	0.138294
8.48582	0.0575138
8.47195	0.087384
8.45813	0.0814964
8.44436	-0.00243628
8.43062	0.025422
8.41693	0.0323004
8.4033	0.0874557
8.3897	0.298849
8.37614	0.406266
8.36264	0.361816
8.34917	0.26105
8.33574	0.217371
8.32236	0.320484
8.30903	0.425291
8.29573	0.494154
8.28248	0.452687
8.26927	0.477395
8.2561	0.532117
8.24298	0.490284
8.2299	0.478227
8.21685	0.670368
8.20385	0.754626
8.19089	0.632432
8.17797	0.556387
8.16509	0.658379
8.15225	0.747116
8.13946	0.727186
8.1267	0.820094
8.11398	1.02695
8.10131	0.979145
8.08867	0.941343
8.07606	1.02907
8.0635	1.05262
8.05099	1.08782
8.0385	1.19637
8.02606	1.29606
8.01366	1.3342
8.00129	1.34095
7.98896	1.30537
7.97667	1.3559
7.96442	1.47825
7.9522	1.56941
7.94002	1.66324
7.92788	1.69595
7.91578	1.65549
7.90371	1.7281
7.89168	1.83606
7.87969	1.85962
7.86773	1.8782
7.85581	1.84563
7.84392	1.876
7.83207	1.96719
7.82026	1.98228
7.80849	2.03447
7.79674	2.06426
7.78503	2.12525
7.77337	2.17844
7.76173	2.1813
7.75012	2.29619
7.73856	2.3869
7.72703	2.40592
7.71553	2.45478
7.70406	2.48285
7.69263	2.60355
7.68123	2.60784
7.66987	2.5925
7.65855	2.63018
7.64725	2.66678
7.63598	2.73205
7.62475	2.71356
7.61356	2.63241
7.60239	2.64748
7.59126	2.72227
7.58017	2.78498
7.5691	2.82418
7.55806	2.82864
7.54707	2.86903
7.5361	2.92006
7.52516	2.89954
7.51425	2.83502
7.50338	2.83435
7.49253	2.8823
7.48172	2.91252
7.47094	2.97567
7.46019	2.9568
7.44947	2.97653
7.43879	3.06357
7.42813	2.99851
7.4175	2.96409
7.4069	3.01196
7.39634	3.1165
7.3858	3.22315
7.37529	3.15018
7.36482	3.09326
7.35437	3.11465
7.34396	3.11358
7.33357	3.186
7.32321	3.32926
7.31288	3.35032
7.30258	3.25135
7.29231	3.29814
7.28207	3.41552
7.27185	3.45788
7.26167	3.43691
7.25152	3.42244
7.24139	3.42546
7.23129	3.42989
7.22122	3.44384
7.21117	3.41588
7.20116	3.38197
7.19117	3.40985
7.18121	3.49602
7.17128	3.51599
7.16137	3.48902
7.1515	3.42254
7.14164	3.43797
7.13182	3.51722
7.12203	3.47153
7.11225	3.42703
7.10251	3.4207
7.0928	3.45811
7.08311	3.439
7.07344	3.38637
7.06381	3.39516
7.0542	3.47939
7.04461	3.49413
7.03506	3.44495
7.02552	3.52472
7.01601	3.49017
7.00653	3.38051
6.99708	3.36341
6.98765	3.37479
6.97824	3.32871
6.96886	3.3592
6.95951	3.36913
6.95018	3.34345
6.94087	3.33475
6.9316	3.32709
6.92234	3.35568
6.91311	3.36422
6.90391	3.29774
6.89473	3.31652
6.88557	3.31295
6.87644	3.28786
6.86733	3.37287
6.85824	3.38272
6.84918	3.30797
6.84015	3.2821
6.83114	3.30708
6.82215	3.36079
6.81319	3.30934
6.80424	3.24363
6.79532	3.21367
6.78643	3.21463
6.77756	3.16514
6.76871	3.12047
6.75989	3.14911
6.75109	3.14829
6.74231	3.13107
6.73355	3.06546
6.72482	3.05433
6.71611	3.11503
6.70742	3.03832
6.69875	2.94758
6.69011	3.01449
6.68149	3.03599
6.67289	2.92481
6.66431	2.8459
6.65576	2.786
6.64722	2.84923
6.63871	2.97856
6.63022	2.90678
6.62175	2.75719
6.61331	2.70438
6.60488	2.71665
6.59648	2.74461
6.5881	2.74735
6.57974	2.7179
6.5714	2.68661
6.56308	2.62367
6.55478	2.49765
6.54651	2.50674
6.53825	2.5739
6.53001	2.61174
6.5218	2.57825
6.51361	2.49178
6.50544	2.43364
6.49729	2.48534
6.48915	2.55635
6.48104	2.58252
6.47295	2.59302
6.46488	2.54466
6.45683	2.50152
6.4488	2.43605
6.44079	2.41014
6.4328	2.52501
6.42482	2.62965
6.41687	2.63507
6.40894	2.57932
6.40103	2.54179
6.39314	2.55126
6.38526	2.5997
6.37741	2.60133
6.36957	2.59197
6.36176	2.57743
6.35396	2.58885
6.34618	2.741
6.33843	2.6862
6.33069	2.54594
6.32297	2.52015
6.31527	2.57026
6.30758	2.57508
6.29992	2.65347
6.29227	2.71437
6.28465	2.65372
6.27704	2.65973
6.26945	2.66997
6.26188	2.63358
6.25432	2.65787
6.24679	2.69153
6.23927	2.68223
6.23177	2.66265
6.22429	2.67145
6.21683	2.593
6.20938	2.54838
6.20195	2.57314
6.19454	2.66896
6.18715	2.76896
6.17978	2.7238
6.17242	2.67204
6.16508	2.72221
6.15776	2.76553
6.15045	2.72218
6.14317	2.67584
6.1359	2.62552
6.12864	2.61419
6.12141	2.67074
6.11419	2.64792
6.10699	2.61425
6.0998	2.56825
6.09263	2.49006
6.08549	2.45944
6.07835	2.54691
6.07123	2.60459
6.06413	2.60882
6.05705	2.64633
6.04998	2.69941
6.04293	2.70171
6.0359	2.64584
6.02888	2.5607
6.02187	2.51084
6.01489	2.50364
6.00792	2.45267
6.00096	2.4921
5.99403	2.54517
5.98711	2.47794
5.9802	2.40378
5.97331	2.40032
5.96644	2.44154
5.95958	2.42595
5.95274	2.3376
5.94591	2.29343
5.9391	2.45316
5.9323	2.41733
5.92552	2.2596
5.91876	2.16929
5.91201	2.05743
5.90528	1.94681
5.89856	1.88958
5.89186	1.69858
5.88517	1.53269
5.8785	1.4057
5.87184	1.34341
5.8652	1.42962
5.85857	1.48781
5.85196	1.59525
5.84536	1.82448
5.83878	1.97893
5.83221	2.14472
5.82566	2.42912
5.81912	2.56572
5.81259	2.63896
5.80608	2.87762
5.79959	3.16675
5.79311	3.3284
5.78665	3.4617
5.78019	3.67785
5.77376	3.82075
5.76734	3.94604
5.76093	4.04531
5.75453	4.10747
5.74815	4.27855
5.74179	4.36113
5.73543	4.46952
5.7291	4.50622
5.72277	4.53409
5.71646	4.64983
5.71017	4.74009
5.70389	4.81903
5.69762	4.81532
5.69136	4.78245
5.68513	4.83926
5.6789	4.9816
5.67268	5.02412
5.66648	5.0287
5.6603	5.02379
5.65413	4.95681
5.64797	4.97584
5.64182	5.04083
5.63569	5.05249
5.62957	5.03159
5.62347	5.02554
5.61737	5.06205
5.61129	5.13436
5.60522	5.2344
5.59917	5.32958
5.59313	5.32969
5.5871	5.37096
5.58109	5.53455
5.57509	5.66073
5.5691	5.71004
5.56312	5.78233
5.55716	5.89853
5.55121	6.04122
5.54528	6.19218
5.53935	6.3383
5.53344	6.39494
5.52754	6.44476
5.52166	6.50634
5.51578	6.55867
5.50992	6.60042
5.50407	6.68232
5.49823	6.75682
5.49241	6.77982
5.4866	6.74295
5.4808	6.78539
5.47501	6.86694
5.46923	6.91938
5.46347	6.88047
5.45772	6.81277
5.45198	6.83332
5.44625	6.82461
5.44054	6.73606
5.43484	6.70966
5.42914	6.68524
5.42347	6.7138
5.4178	6.64131
5.41214	6.54872
5.4065	6.49853
5.40087	6.39066
5.39525	6.34593
5.38964	6.36629
5.38404	6.37429
5.37846	6.4284
5.37288	6.39502
5.36732	6.36265
5.36177	6.42658
5.35623	6.51615
5.35071	6.53153
5.34519	6.46534
5.33968	6.38672
5.33419	6.39676
5.32871	6.35962
5.32324	6.27363
5.31778	6.318
5.31233	6.29582
5.30689	6.1953
5.30147	6.07888
5.29605	6.02637
5.29065	6.07943
5.28525	6.0407
5.27987	6.10562
5.2745	6.17376
5.26914	6.17554
5.26379	6.20359
5.25845	6.28131
5.25312	6.32294
5.24781	6.5039
5.2425	6.61654
5.23721	6.62428
5.23192	6.72034
5.22665	6.86744
5.22138	6.92542
5.21613	6.98314
5.21089	7.08101
5.20566	7.19027
5.20044	7.32117
5.19522	7.36849
5.19002	7.40221
5.18483	7.51018
5.17965	7.53253
5.17448	7.48174
5.16933	7.56596
5.16418	7.56657
5.15904	7.51225
5.15391	7.47672
5.14879	7.39874
5.14368	7.22771
5.13859	7.0939
5.1335	7.0135
5.12842	6.95892
5.12335	7.02939
5.1183	7.12478
5.11325	7.14482
5.10821	7.15607
5.10318	7.17318
5.09817	7.22285
5.09316	7.27016
5.08816	7.32188
5.08317	7.38864
5.07819	7.37342
5.07322	7.40288
5.06826	7.47462
5.06331	7.41419
5.05837	7.37682
5.05344	7.38719
5.04852	7.35983
5.04361	7.27587
5.03871	7.22045
5.03382	7.20656
5.02894	7.19589
5.02406	7.0347
5.0192	6.96872
5.01435	7.06721
5.0095	7.0705
5.00467	6.96115
4.99984	6.78458
4.99502	6.72639
4.99021	6.76613
4.98542	6.79414
4.98063	6.82666
4.97585	6.87637
4.97108	7.05322
4.96632	7.18789
4.96156	7.21018
4.95682	7.34505
4.95209	7.50188
4.94736	7.60093
4.94264	7.66352
4.93794	7.73679
4.93324	7.85386
4.92855	7.93758
4.92387	7.94285
4.9192	7.9206
4.91453	7.88155
4.90988	7.9192
4.90524	7.94503
4.9006	7.95258
4.89597	7.95737
4.89135	7.91648
4.88674	7.85647
4.88214	7.79405
4.87755	7.827
4.87296	7.84546
4.86839	7.86537
4.86382	7.90343
4.85926	7.90033
4.85471	7.92438
4.85017	7.95109
4.84564	7.87239
4.84111	7.83756
4.8366	7.82888
4.83209	7.80686
4.82759	7.84432
4.8231	7.84536
4.81862	7.85946
4.81415	7.86025
4.80968	7.81719
4.80522	7.77741
4.80077	7.76473
4.79633	7.69296
4.7919	7.54972
4.78747	7.51411
4.78306	7.4457
4.77865	7.44716
4.77425	7.4986
4.76986	7.47787
4.76547	7.44355
4.7611	7.39813
4.75673	7.26683
4.75237	7.15091
4.74802	7.14725
4.74367	7.13035
4.73934	7.06583
4.73501	6.96068
4.73069	6.93007
4.72638	6.93957
4.72207	6.90973
4.71777	6.84372
4.71348	6.80179
4.7092	6.79533
4.70493	6.7396
4.70066	6.71508
4.69641	6.74076
4.69216	6.66265
4.68791	6.54724
4.68368	6.42229
4.67945	6.31466
4.67523	6.26492
4.67102	6.24285
4.66682	6.20288
4.66262	6.14957
4.65843	6.13025
4.65425	6.16013
4.65007	6.04847
4.64591	5.91659
4.64175	5.86907
4.6376	5.85154
4.63345	5.79988
4.62932	5.68885
4.62519	5.60357
4.62106	5.60322
4.61695	5.55461
4.61284	5.39918
4.60874	5.31078
4.60465	5.33027
4.60056	5.28569
4.59648	5.23983
4.59241	5.24636
4.58835	5.26517
4.58429	5.18184
4.58024	5.1438
4.5762	5.1246
4.57216	5.07021
4.56814	5.08312
4.56411	5.06636
4.5601	5.06873
4.55609	5.11144
4.55209	5.10737
4.5481	5.05138
4.54411	4.93401
4.54013	4.90386
4.53616	4.93029
4.5322	4.98659
4.52824	4.96014
4.52429	4.96229
4.52034	4.99347
4.51641	4.97322
4.51247	4.91591
4.50855	4.89661
4.50463	4.93202
4.50072	4.89557
4.49682	4.88281
4.49292	4.89106
4.48903	4.93431
4.48515	4.90445
4.48127	4.93533
4.4774	5.00242
4.47354	4.95192
4.46968	4.9877
4.46584	5.03686
4.46199	5.0507
4.45815	5.03207
4.45432	4.97231
4.4505	4.96457
4.44668	4.96544
4.44287	5.03333
4.43907	5.06005
4.43527	5.0091
4.43148	4.94811
4.4277	5.00825
4.42392	4.92776
4.42015	4.86827
4.41638	4.88919
4.41262	4.87018
4.40887	4.8048
4.40513	4.75112
4.40139	4.64244
4.39765	4.61497
4.39393	4.6091
4.39021	4.6743
4.38649	4.73031
4.38278	4.66044
4.37908	4.63358
4.37539	4.63189
4.3717	4.61904
4.36801	4.64648
4.36434	4.59314
4.36067	4.53246
4.357	4.55682
4.35335	4.60859
4.34969	4.64749
4.34605	4.69874
4.34241	4.70953
4.33877	4.74147
4.33514	4.77383
4.33152	4.71395
4.32791	4.6836
4.3243	4.66159
4.32069	4.65868
4.3171	4.66747
4.31351	4.63006
4.30992	4.54414
4.30634	4.52853
4.30277	4.61771
4.2992	4.59702
4.29564	4.56933
4.29208	4.64228
4.28853	4.72712
4.28499	4.71705
4.28145	4.59188
4.27792	4.55581
4.27439	4.57408
4.27087	4.6969
4.26735	4.81319
4.26384	4.76333
4.26034	4.73582
4.25684	4.85369
4.25335	4.93217
4.24986	4.90703
4.24638	4.90732
4.24291	4.92851
4.23944	5.05032
4.23598	5.24141
4.23252	5.31843
4.22906	5.35301
4.22562	5.47915
4.22218	5.62379
4.21874	5.75108
4.21531	5.84345
4.21189	5.92569
4.20847	5.95371
4.20506	5.9942
4.20165	6.06381
4.19825	6.13374
4.19485	6.28454
4.19146	6.41931
4.18807	6.51145
4.18469	6.63122
4.18132	6.78802
4.17795	6.88501
4.17458	6.87689
4.17123	6.86512
4.16787	6.96844
4.16453	7.06837
4.16118	7.07192
4.15785	7.15112
4.15451	7.30141
4.15119	7.31613
4.14787	7.30121
4.14455	7.29885
4.14124	7.31608
4.13794	7.3728
4.13464	7.43824
4.13134	7.45308
4.12805	7.45241
4.12477	7.52358
4.12149	7.54852
4.11822	7.5931
4.11495	7.60426
4.11168	7.57874
4.10843	7.62686
4.10517	7.69199
4.10192	7.65631
4.09868	7.58261
4.09545	7.52357
4.09221	7.53888
4.08899	7.57196
4.08576	7.5326
4.08255	7.49677
4.07933	7.49129
4.07613	7.48421
4.07292	7.4383
4.06973	7.41419
4.06654	7.46396
4.06335	7.48066
4.06017	7.43025
4.05699	7.42052
4.05382	7.42663
4.05065	7.40133
4.04749	7.30279
4.04433	7.26235
4.04118	7.27977
4.03803	7.31315
4.03489	7.31055
4.03175	7.26039
4.02862	7.24118
4.02549	7.18868
4.02237	7.23647
4.01925	7.24168
4.01614	7.2245
4.01303	7.2413
4.00993	7.20866
4.00683	7.13997
4.00373	7.06103
4.00064	7.01944
3.99756	7.02184
3.99448	7.00527
3.9914	6.95593
3.98833	6.93888
3.98527	6.97178
3.98221	6.99662
3.97915	6.89501
3.9761	6.83805
3.97305	6.84669
3.97001	6.80209
3.96697	6.79198
3.96394	6.86712
3.96091	6.87696
3.95789	6.76026
3.95487	6.7056
3.95186	6.74938
3.94885	6.76639
3.94584	6.71386
3.94284	6.60904
3.93984	6.51762
3.93685	6.55395
3.93386	6.59644
3.93088	6.56376
3.9279	6.5457
3.92493	6.58734
3.92196	6.55808
3.919	6.47792
3.91604	6.50479
3.91308	6.48417
3.91013	6.40482
3.90718	6.35758
3.90424	6.37181
3.9013	6.337
3.89837	6.21601
3.89544	6.12444
3.89252	6.26032
3.8896	6.23675
3.88668	6.1357
3.88377	6.17562
3.88086	6.19553
3.87796	6.16457
3.87506	6.11981
3.87217	6.06942
3.86928	6.02538
3.86639	5.92942
3.86351	5.88373
3.86064	5.86455
3.85776	5.80706
3.8549	5.78409
3.85203	5.79882
3.84917	5.76242
3.84631	5.77998
3.84346	5.77273
3.84062	5.72888
3.83777	5.66893
3.83494	5.64235
3.8321	5.73105
3.82927	5.59282
3.82644	5.44855
3.82362	5.38658
3.82081	5.34864
3.81799	5.3734
3.81518	5.40299
3.81238	5.34703
3.80958	5.27706
3.80678	5.3699
3.80399	5.35258
3.8012	5.24767
3.79841	5.26407
3.79563	5.24468
3.79286	5.18791
3.79008	5.12727
3.78731	5.12166
3.78455	5.11946
3.78179	5.04587
3.77903	5.00946
3.77628	4.98088
3.77353	4.94463
3.77079	4.93294
3.76805	5.02656
3.76531	4.95843
3.76258	4.90453
3.75985	4.92572
3.75713	4.87345
3.7544	4.74653
3.75169	4.6882
3.74898	4.7323
3.74627	4.731
3.74356	4.64444
3.74086	4.58978
3.73816	4.57657
3.73547	4.59526
3.73278	4.55192
3.7301	4.52002
3.72741	4.55228
3.72474	4.50889
3.72206	4.43381
3.71939	4.43432
3.71673	4.45573
3.71406	4.45138
3.71141	4.44299
3.70875	4.46172
3.7061	4.39229
3.70345	4.3689
3.70081	4.36545
3.69817	4.31213
3.69553	4.25997
3.6929	4.28978
3.69027	4.36476
3.68765	4.38019
3.68503	4.30992
3.68241	4.2632
3.6798	4.20203
3.67719	4.17373
3.67458	4.13118
3.67198	4.0927
3.66938	4.11897
3.66678	4.06301
3.66419	4.0766
3.66161	4.07831
3.65902	4.02999
3.65644	4.06061
3.65387	4.00146
3.65129	4.00911
3.64872	4.08467
3.64616	4.06513
3.64359	3.93602
3.64103	3.90809
3.63848	3.90498
3.63593	3.91785
3.63338	3.87631
3.63084	3.84379
3.6283	3.89155
3.62576	3.84289
3.62322	3.77293
3.62069	3.78824
3.61817	3.89628
3.61564	3.85322
3.61312	3.77367
3.61061	3.8332
3.6081	3.81379
3.60559	3.72745
3.60308	3.80262
3.60058	3.86153
3.59808	3.8179
3.59558	3.71943
3.59309	3.69093
3.59061	3.68604
3.58812	3.69628
3.58564	3.62164
3.58316	3.56757
3.58069	3.6603
3.57822	3.66996
3.57575	3.67579
3.57328	3.66215
3.57082	3.61056
3.56836	3.60344
3.56591	3.68268
3.56346	3.70289
3.56101	3.59126
3.55857	3.50662
3.55613	3.49186
3.55369	3.56759
3.55126	3.6047
3.54883	3.49224
3.5464	3.5542
3.54397	3.61936
3.54155	3.49606
3.53914	3.45808
3.53672	3.5223
3.53431	3.43002
3.5319	3.32514
3.5295	3.46304
3.5271	3.62739
3.5247	3.70149
3.52231	3.64828
3.51991	3.4445
3.51753	3.35096
3.51514	3.48872
3.51276	3.52904
3.51038	3.46566
3.50801	3.36841
3.50563	3.33285
3.50327	3.39682
3.5009	3.38538
3.49854	3.3604
3.49618	3.37121
3.49382	3.46371
3.49147	3.58438
3.48912	3.60307
3.48677	3.57198
3.48443	3.53714
3.48209	3.42816
3.47975	3.36983
3.47742	3.33739
3.47509	3.28677
3.47276	3.32728
3.47044	3.34469
3.46812	3.34792
3.4658	3.38165
3.46348	3.35771
3.46117	3.37275
3.45886	3.3276
3.45656	3.29672
3.45425	3.35872
3.45195	3.33756
3.44966	3.34558
3.44736	3.38686
3.44507	3.29888
3.44279	3.24778
3.4405	3.17112
3.43822	3.19553
3.43594	3.31497
3.43367	3.3966
3.43139	3.4205
3.42912	3.35371
3.42686	3.34312
3.42459	3.3481
3.42233	3.29007
3.42007	3.22362
3.41782	3.31824
3.41557	3.40723
3.41332	3.28465
3.41108	3.254
3.40883	3.32051
3.40659	3.29077
3.40435	3.21087
3.40212	3.20518
3.39989	3.19927
3.39766	3.20733
3.39544	3.27598
3.39322	3.32398
3.391	3.29983
3.38878	3.28935
3.38657	3.33804
3.38436	3.32843
3.38215	3.35694
3.37994	3.31636
3.37774	3.25554
3.37554	3.37028
3.37335	3.33046
3.37115	3.18763
3.36896	3.17288
3.36678	3.16689
3.36459	3.23218
3.36241	3.25211
3.36023	3.3177
3.35805	3.3641
3.35588	3.33633
3.35371	3.37476
3.35154	3.2824
3.34938	3.2873
3.34721	3.39873
3.34505	3.48367
3.3429	3.45687
3.34074	3.44711
3.33859	3.44097
3.33644	3.23395
3.3343	3.17688
3.33215	3.21912
3.33001	3.18949
3.32788	3.10998
3.32574	3.10916
3.32361	3.12823
3.32148	3.14378
3.31936	3.12639
3.31723	3.08311
3.31511	3.05168
3.31299	3.07428
3.31088	3.05803
3.30876	2.97127
3.30665	2.95656
3.30455	3.02461
3.30244	2.96067
3.30034	2.91963
3.29824	2.8528
3.29614	2.76961
3.29405	2.8067
3.29196	2.87114
3.28987	2.89635
3.28778	2.7838
3.2857	2.65722
3.28362	2.72332
3.28154	2.78459
3.27946	2.71044
3.27739	2.69744
3.27532	2.79812
3.27325	2.726
3.27119	2.5639
3.26913	2.55686
3.26707	2.54266
3.26501	2.55249
3.26295	2.53942
3.2609	2.4834
3.25885	2.59091
3.2568	2.67146
3.25476	2.54852
3.25272	2.38691
3.25068	2.41262
3.24864	2.48091
3.24661	2.47302
3.24458	2.43557
3.24255	2.51675
3.24052	2.62581
3.2385	2.53503
3.23648	2.43381
3.23446	2.3502
3.23244	2.38356
3.23043	2.4654
3.22841	2.46292
3.2264	2.57817
3.2244	2.56305
3.22239	2.49493
3.22039	2.34033
3.21839	2.24489
3.2164	2.34625
3.2144	2.42166
3.21241	2.35435
3.21042	2.29634
3.20844	2.28866
3.20645	2.3224
3.20447	2.31555
3.20249	2.31816
3.20051	2.26369
3.19854	2.30844
3.19657	2.31859
3.1946	2.22912
3.19263	2.18634
3.19067	2.29795
3.1887	2.31065
3.18674	2.31017
3.18479	2.24826
3.18283	2.20306
3.18088	2.13144
3.17893	2.12222
3.17698	2.1505
3.17504	2.12062
3.17309	2.10812
3.17115	2.10272
3.16921	2.0842
3.16728	2.04632
3.16534	2.00314
3.16341	1.97903
3.16148	1.92899
3.15956	1.95948
3.15763	2.02725
3.15571	1.97485
3.15379	2.01317
3.15187	2.18864
3.14996	2.10334
3.14805	1.9689
3.14614	1.9515
3.14423	1.96278
3.14232	1.93128
3.14042	1.94308
3.13852	1.98981
3.13662	1.96059
3.13472	1.84174
3.13283	1.80448
3.13094	1.86
3.12905	1.89106
3.12716	1.83996
3.12528	1.7581
3.12339	1.85062
3.12151	1.90193
3.11964	1.84439
3.11776	1.79349
3.11589	1.874
3.11401	1.93713
3.11214	1.89354
3.11028	1.85804
3.10841	1.8492
3.10655	1.83543
3.10469	1.74808
3.10283	1.66458
3.10098	1.75393
3.09912	1.95111
3.09727	1.96878
3.09542	1.86264
3.09358	1.84749
3.09173	1.88174
3.08989	1.93387
3.08805	1.88107
3.08621	1.77732
3.08437	1.81314
3.08254	1.92385
3.08071	1.9313
3.07888	1.90256
3.07705	1.83178
3.07523	1.77943
3.0734	1.83741
3.07158	1.85961
3.06977	1.88766
3.06795	1.94115
3.06613	1.97548
3.06432	1.89944
3.06251	1.81806
3.0607	1.91994
3.0589	1.99494
3.0571	2.04184
3.05529	2.10526
3.05349	2.1409
3.0517	2.16595
3.0499	2.1214
3.04811	1.9679
3.04632	1.95905
3.04453	1.97931
3.04274	1.95602
3.04096	2.02407
3.03918	2.12332
3.0374	2.05318
3.03562	1.97264
3.03384	1.98578
3.03207	1.99116
3.03029	1.97727
3.02852	2.04285
3.02676	2.09307
3.02499	1.98551
3.02323	1.99009
3.02146	1.97052
3.0197	1.961
3.01795	2.02816
3.01619	2.10508
3.01444	2.06097
3.01269	2.10542
3.01094	2.26359
3.00919	2.24637
3.00744	2.17507
3.0057	2.20257
3.00396	2.26055
3.00222	2.1591
3.00048	2.0536
2.99875	2.1776
2.99701	2.35214
2.99528	2.35937
2.99355	2.25734
2.99183	2.23564
2.9901	2.16319
2.98838	2.06907
2.98666	2.16136
2.98494	2.19401
2.98322	2.13728
2.9815	2.17305
2.97979	2.38224
2.97808	2.46128
2.97637	2.30245
2.97466	2.2288
2.97295	2.20921
2.97125	2.16197
2.96955	2.07698
2.96785	2.10553
2.96615	2.23094
2.96446	2.28236
2.96276	2.37019
2.96107	2.5208
2.95938	2.43204
2.95769	2.32513
2.95601	2.19562
2.95432	2.22701
2.95264	2.20745
2.95096	2.28565
2.94928	2.55808
2.9476	2.41432
2.94593	2.19857
2.94425	2.27138
2.94258	2.33727
2.94092	2.53437
2.93925	2.61201
2.93758	2.49998
2.93592	2.50115
2.93426	2.42606
2.9326	2.4673
2.93094	2.49326
2.92928	2.46866
2.92763	2.44192
2.92598	2.49192
2.92433	2.53908
2.92268	2.62337
2.92103	2.66071
2.91939	2.64422
2.91775	2.68382
2.9161	2.64005
2.91447	2.64525
2.91283	2.80145
2.91119	2.79494
2.90956	2.77222
2.90793	2.70714
2.9063	2.82008
2.90467	2.90061
2.90304	2.96959
2.90142	3.06575
2.89979	3.11591
2.89817	3.17726
2.89656	3.22936
2.89494	3.17484
2.89332	3.23315
2.89171	3.41555
2.8901	3.6237
2.88849	3.65312
2.88688	3.53974
2.88527	3.48497
2.88367	3.57808
2.88206	3.72726
2.88046	3.73683
2.87886	3.81866
2.87727	3.79783
2.87567	3.86251
2.87408	3.89663
2.87248	3.7658
2.87089	3.83206
2.8693	3.87418
2.86772	3.74603
2.86613	3.83755
2.86455	3.89379
2.86297	4.00883
2.86139	4.14026
2.85981	4.25484
2.85823	4.23136
2.85666	4.12668
2.85508	4.20507
2.85351	4.24395
2.85194	4.36644
2.85038	4.50746
2.84881	4.54092
2.84724	4.31284
2.84568	4.25236
2.84412	4.38764
2.84256	4.71587
2.841	4.94046
2.83945	4.69384
2.83789	4.50931
2.83634	4.43007
2.83479	4.33352
2.83324	4.28339
2.83169	4.12715
2.83015	3.86885
2.82861	3.67743
2.82706	3.53349
2.82552	3.5095
2.82398	3.32877
2.82245	3.08859
2.82091	3.01467
2.81938	2.9145
2.81784	2.93125
2.81631	2.86859
2.81479	2.71047
2.81326	2.53381
2.81173	2.2803
2.81021	2.15911
2.80869	2.29745
2.80716	2.3008
2.80565	2.19833
2.80413	2.27222
2.80261	2.53002
2.8011	2.85875
2.79959	3.13141
2.79808	3.42391
2.79657	3.74213
2.79506	4.00246
2.79355	4.17419
2.79205	4.22834
2.79055	4.49037
2.78904	4.8357
2.78754	5.1425
2.78605	5.25994
2.78455	5.46025
2.78306	5.84138
2.78156	5.93232
2.78007	5.97007
2.77858	6.16662
2.77709	6.1967
2.77561	6.31674
2.77412	6.46968
2.77264	6.57134
2.77116	6.73087
2.76968	6.80265
2.7682	6.98634
2.76672	7.22876
2.76524	7.32504
2.76377	7.56475
2.7623	8.01561
2.76083	8.3156
2.75936	8.34189
2.75789	8.54416
2.75642	9.08742
2.75496	9.49952
2.7535	9.69463
2.75203	9.93287
2.75057	10.1471
2.74912	10.3727
2.74766	10.6481
2.7462	10.8749
2.74475	10.9159
2.7433	11.0856
2.74185	11.3442
2.7404	11.6947
2.73895	11.9163
2.7375	11.9056
2.73606	12.0462
2.73462	12.2134
2.73318	12.4127
2.73174	12.6137
2.7303	12.6877
2.72886	12.7207
2.72742	12.8629
2.72599	13.0762
2.72456	13.348
2.72313	13.474
2.7217	13.7033
2.72027	13.8619
2.71884	13.6645
2.71742	13.6196
2.71599	13.7894
2.71457	13.8238
2.71315	13.9879
2.71173	14.4856
2.71032	14.9037
2.7089	15.2389
2.70748	15.3549
2.70607	15.4056
2.70466	15.7629
2.70325	16.0059
2.70184	16.0848
2.70043	16.2764
2.69903	16.4438
2.69762	16.5425
2.69622	16.7048
2.69482	17.0009
2.69342	17.1656
2.69202	17.2588
2.69062	17.3804
2.68923	17.606
2.68783	17.9015
2.68644	18.2019
2.68505	18.588
2.68366	18.8559
2.68227	19.1051
2.68089	19.437
2.6795	19.8517
2.67812	20.0526
2.67673	20.2333
2.67535	20.0364
2.67397	19.9838
2.6726	20.0969
2.67122	20.4583
2.66984	20.487
2.66847	20.2356
2.6671	20.2965
2.66572	20.3211
2.66435	20.0091
2.66299	19.5556
2.66162	19.6014
2.66025	19.7866
2.65889	19.7049
2.65753	19.5539
2.65616	19.5762
2.65481	19.6397
2.65345	19.8577
2.65209	20.1696
2.65073	20.2328
2.64938	20.2792
2.64803	20.3811
2.64667	20.4293
2.64532	20.5818
2.64397	20.5348
2.64263	20.5725
2.64128	20.848
2.63994	21.0323
2.63859	21.031
2.63725	21.3206
2.63591	21.647
2.63457	22.0106
2.63323	22.3979
2.6319	22.7998
2.63056	23.1517
2.62923	23.1735
2.62789	23.2182
2.62656	23.3668
2.62523	23.2978
2.6239	23.3222
2.62258	23.1138
2.62125	23.1476
2.61993	23.1685
2.6186	23.0366
2.61728	23.1243
2.61596	23.0673
2.61464	22.791
2.61332	22.6776
2.61201	22.5616
2.61069	22.5213
2.60938	22.477
2.60807	22.4331
2.60675	22.6137
2.60544	22.8094
2.60414	22.7383
2.60283	22.8243
2.60152	22.9021
2.60022	22.9059
2.59891	23.0483
2.59761	23.3677
2.59631	24.0836
2.59501	25.0513
2.59371	24.8801
2.59242	24.421
2.59112	24.8331
2.58983	25.309
2.58853	25.5407
2.58724	25.5148
2.58595	25.5149
2.58466	25.8723
2.58338	25.9408
2.58209	25.9337
2.5808	26.2133
2.57952	26.1845
2.57824	26.2176
2.57695	26.3527
2.57567	26.4457
2.5744	26.6891
2.57312	26.9349
2.57184	26.8244
2.57057	26.9042
2.56929	27.0432
2.56802	26.9974
2.56675	27.1071
2.56548	27.2639
2.56421	27.3687
2.56294	27.2676
2.56168	27.1111
2.56041	27.0952
2.55915	27.0143
2.55789	27.0119
2.55662	27.1919
2.55536	27.416
2.5541	27.5327
2.55285	27.5584
2.55159	27.6125
2.55034	27.7439
2.54908	27.795
2.54783	27.8673
2.54658	27.9467
2.54533	28.0538
2.54408	27.9847
2.54283	27.8863
2.54159	27.7155
2.54034	27.5686
2.5391	27.4613
2.53785	27.384
2.53661	27.2611
2.53537	27.109
2.53413	26.8776
2.53289	26.7279
2.53166	26.6077
2.53042	26.4022
2.52919	26.1799
2.52795	25.9564
2.52672	25.7482
2.52549	25.4945
2.52426	25.1554
2.52303	24.8385
2.52181	24.4812
2.52058	23.9492
2.51936	23.3842
2.51813	23.0332
2.51691	22.7387
2.51569	22.6732
2.51447	22.6746
2.51325	22.7652
2.51203	22.8781
2.51082	22.9236
2.5096	23.032
2.50839	23.2296
2.50717	23.3994
2.50596	23.5434
2.50475	23.6621
2.50354	23.7142
2.50233	23.6991
2.50113	23.7443
2.49992	24.0293
2.49872	24.1191
2.49751	23.9322
2.49631	23.5726
2.49511	23.2361
2.49391	23.1263
2.49271	22.889
2.49151	22.4393
2.49031	22.0719
2.48912	21.7843
2.48792	21.4126
2.48673	20.9987
2.48554	20.5651
2.48435	20.3168
2.48316	20.0486
2.48197	19.7108
2.48078	19.4768
2.4796	19.127
2.47841	18.9281
2.47723	18.8424
2.47604	18.6428
2.47486	18.2874
2.47368	18.0698
2.4725	17.9568
2.47132	17.7115
2.47014	17.7484
2.46897	17.7468
2.46779	17.6417
2.46662	17.7159
2.46545	17.63
2.46427	17.3498
2.4631	17.2579
2.46193	17.3018
2.46077	17.4592
2.4596	17.6099
2.45843	17.6675
2.45727	17.7403
2.4561	17.8793
2.45494	17.8709
2.45378	18.0128
2.45262	18.2483
2.45146	18.3117
2.4503	18.341
2.44914	18.4911
2.44799	18.7698
2.44683	19.0434
2.44568	19.2755
2.44452	19.6855
2.44337	20.1731
2.44222	20.5486
2.44107	20.9054
2.43992	21.2471
2.43877	21.6077
2.43763	21.821
2.43648	22.102
2.43534	22.3432
2.43419	22.4441
2.43305	22.4309
2.43191	22.3467
2.43077	22.2017
2.42963	21.9009
2.42849	21.4856
2.42736	21.2397
2.42622	20.9299
2.42509	20.2918
2.42395	19.636
2.42282	19.1738
2.42169	18.6851
2.42056	18.1631
2.41943	17.7979
2.4183	17.5325
2.41717	17.2872
2.41605	17.0203
2.41492	16.9255
2.4138	16.732
2.41267	16.561
2.41155	16.4089
2.41043	16.1673
2.40931	16.0902
2.40819	16.0487
2.40707	15.9588
2.40595	15.8542
2.40484	15.9925
2.40372	16.2148
2.40261	16.1894
2.4015	16.286
2.40039	16.417
2.39928	16.3131
2.39817	16.3593
2.39706	16.387
2.39595	16.1236
2.39484	16.0189
2.39374	16.1107
2.39263	16.1656
2.39153	16.2783
2.39043	16.4644
2.38932	16.5281
2.38822	16.6092
2.38712	16.8736
2.38603	17.213
2.38493	17.4028
2.38383	17.5879
2.38274	17.8493
2.38164	18.2384
2.38055	18.7133
2.37946	19.1108
2.37836	19.4876
2.37727	20.0082
2.37618	20.4736
2.3751	20.9411
2.37401	21.5368
2.37292	22.3476
2.37184	23.1095
2.37075	23.7397
2.36967	24.6768
2.36859	25.5751
2.3675	26.3219
2.36642	27.1957
2.36534	28.2003
2.36427	29.0818
2.36319	30.0207
2.36211	30.899
2.36104	31.5501
2.35996	32.3467
2.35889	33.3274
2.35781	34.1635
2.35674	34.9272
2.35567	35.8119
2.3546	36.4213
2.35353	36.8272
2.35247	37.4328
2.3514	38.0657
2.35033	38.5565
2.34927	39.074
2.3482	39.5687
2.34714	39.9473
2.34608	40.1816
2.34502	40.4426
2.34396	40.8335
2.3429	41.0858
2.34184	41.2983
2.34078	41.6202
2.33973	41.7813
2.33867	41.8727
2.33762	41.8949
2.33656	41.9938
2.33551	42.3116
2.33446	42.4539
2.33341	42.3973
2.33236	42.3384
2.33131	42.3254
2.33026	42.4439
2.32922	42.5522
2.32817	42.5513
2.32712	42.6327
2.32608	42.6448
2.32504	42.5542
2.324	42.636
2.32295	42.717
2.32191	42.7425
2.32087	42.7798
2.31984	42.7778
2.3188	42.5184
2.31776	42.2642
2.31673	42.0483
2.31569	41.9969
2.31466	41.9545
2.31362	41.7821
2.31259	41.5464
2.31156	41.3637
2.31053	41.3675
2.3095	41.2712
2.30847	41.1307
2.30745	41.1454
2.30642	41.2169
2.3054	41.159
2.30437	41.2323
2.30335	41.3758
2.30232	41.5549
2.3013	41.9856
2.30028	42.1776
2.29926	42.2342
2.29824	42.4918
2.29722	42.8245
2.29621	43.0713
2.29519	43.3239
2.29417	43.5939
2.29316	43.5867
2.29215	43.6804
2.29113	43.9525
2.29012	43.9685
2.28911	43.989
2.2881	44.1962
2.28709	44.2701
2.28608	44.2159
2.28507	44.1906
2.28407	44.2014
2.28306	44.3045
2.28206	44.4145
2.28105	44.5657
2.28005	44.5634
2.27905	44.6173
2.27805	44.6932
2.27705	44.6888
2.27605	44.6089
2.27505	44.7032
2.27405	44.9357
2.27305	45.0253
2.27206	45.0664
2.27106	45.0299
2.27007	45.1
2.26907	45.203
2.26808	45.187
2.26709	45.2346
2.2661	45.3224
2.26511	45.3883
2.26412	45.4186
2.26313	45.3375
2.26214	45.2558
2.26116	45.2958
2.26017	45.2766
2.25919	45.1822
2.2582	45.2742
2.25722	45.3917
2.25624	45.4315
2.25526	45.35
2.25428	45.3823
2.2533	45.338
2.25232	45.1097
2.25134	45.0396
2.25036	45.0271
2.24939	44.9802
2.24841	45.1316
2.24744	45.1913
2.24646	45.0527
2.24549	45.0446
2.24452	44.9463
2.24355	44.8821
2.24257	44.716
2.24161	44.5786
2.24064	44.6101
2.23967	44.6793
2.2387	44.6848
2.23774	44.6382
2.23677	44.5437
2.23581	44.5281
2.23484	44.5677
2.23388	44.4464
2.23292	44.2678
2.23196	44.1179
2.231	44.1139
2.23004	44.1445
2.22908	44.2002
2.22812	44.1343
2.22716	44.1285
2.22621	43.9919
2.22525	43.7011
2.2243	43.5605
2.22334	43.549
2.22239	43.6206
2.22144	43.6494
2.22049	43.5216
2.21953	43.4624
2.21859	43.4157
2.21764	43.2857
2.21669	43.1774
2.21574	42.9685
2.21479	42.9022
2.21385	42.7426
2.2129	42.5463
2.21196	42.4273
2.21102	42.4492
2.21007	42.4152
2.20913	42.3123
2.20819	42.2878
2.20725	42.0666
2.20631	41.906
2.20537	41.8222
2.20444	41.7088
2.2035	41.5838
2.20256	41.4787
2.20163	41.3297
2.20069	41.2166
2.19976	41.107
2.19883	40.9851
2.19789	40.8008
2.19696	40.8163
2.19603	40.8261
2.1951	40.6559
2.19417	40.3556
2.19325	40.3324
2.19232	40.4932
2.19139	40.4004
2.19047	40.1699
2.18954	39.9518
2.18862	39.7466
2.18769	39.7884
2.18677	39.9311
2.18585	39.7791
2.18493	39.6393
2.18401	39.5637
2.18309	39.5894
2.18217	39.7801
2.18125	39.9067
2.18033	39.9413
2.17942	39.8761
2.1785	39.7833
2.17759	39.6671
2.17667	39.5229
2.17576	39.5009
2.17485	39.3372
2.17393	39.1703
2.17302	39.096
2.17211	39.0217
2.1712	39.0534
2.17029	38.9535
2.16939	38.7405
2.16848	38.8474
2.16757	38.8179
2.16667	38.5241
2.16576	38.312
2.16486	38.1371
2.16395	37.9475
2.16305	37.9017
2.16215	37.8854
2.16125	37.8764
2.16035	37.8005
2.15945	37.6247
2.15855	37.5457
2.15765	37.4922
2.15675	37.412
2.15586	37.4823
2.15496	37.5832
2.15406	37.4789
2.15317	37.3431
2.15228	37.2306
2.15138	37.0291
2.15049	36.9921
2.1496	36.8374
2.14871	36.5863
2.14782	36.2945
2.14693	36.091
2.14604	36.0909
2.14515	36.2017
2.14427	36.089
2.14338	35.8835
2.14249	35.8675
2.14161	36.0323
2.14072	35.9941
2.13984	35.883
2.13896	35.7984
2.13808	35.933
2.13719	36.1474
2.13631	36.2963
2.13543	36.305
2.13455	36.2875
2.13368	36.0993
2.1328	36.1736
2.13192	36.4047
2.13105	36.5053
2.13017	36.595
2.1293	36.5735
2.12842	36.4383
2.12755	36.6155
2.12668	36.8787
2.1258	36.8699
2.12493	36.8347
2.12406	36.9748
2.12319	36.9629
2.12232	37.071
2.12145	37.1711
2.12059	37.3767
2.11972	37.6097
2.11885	37.6888
2.11799	37.8486
2.11712	37.9584
2.11626	37.8719
2.1154	37.894
2.11453	38.0671
2.11367	38.2894
2.11281	38.4425
2.11195	38.5151
2.11109	38.5938
2.11023	38.619
2.10937	38.6746
2.10851	39.0345
2.10766	39.303
2.1068	39.3737
2.10594	39.317
2.10509	39.3616
2.10423	39.5384
2.10338	39.6081
2.10253	39.5539
2.10168	39.6372
2.10082	39.8233
2.09997	39.7789
2.09912	39.9002
2.09827	40.2017
2.09742	40.1696
2.09658	40.0225
2.09573	39.9885
2.09488	40.1076
2.09404	40.2291
2.09319	40.5022
2.09235	40.5211
2.0915	40.3599
2.09066	40.255
2.08982	40.2085
2.08897	40.0608
2.08813	39.8407
2.08729	39.9475
2.08645	39.9543
2.08561	39.9419
2.08477	40.1641
2.08394	40.0958
2.0831	39.6964
2.08226	39.6814
2.08143	39.8988
2.08059	39.8663
2.07976	40.0658
2.07892	39.952
2.07809	39.5272
2.07726	39.4732
2.07643	39.7706
2.07559	40.1491
2.07476	40.2166
2.07393	39.7116
2.0731	39.3152
2.07228	39.8891
2.07145	40.2784
2.07062	39.6679
2.06979	38.977
2.06897	39.1657
2.06814	39.3952
2.06732	39.3664
2.06649	39.1509
2.06567	38.9752
2.06485	39.0674
2.06403	38.9951
2.0632	38.9519
2.06238	38.9417
2.06156	38.9011
2.06074	39.2499
2.05993	39.3747
2.05911	39.5315
2.05829	39.4418
2.05747	39.2381
2.05666	39.2156
2.05584	39.0807
2.05503	39.0715
2.05421	39.4047
2.0534	39.4279
2.05259	39.3324
2.05177	39.3003
2.05096	39.2305
2.05015	39.2611
2.04934	39.3005
2.04853	39.3502
2.04772	39.5325
2.04691	39.5782
2.04611	39.4286
2.0453	39.275
2.04449	39.2932
2.04369	39.206
2.04288	39.2708
2.04208	39.3901
2.04127	39.3078
2.04047	39.348
2.03967	39.4367
2.03886	39.2139
2.03806	39.4262
2.03726	39.6203
2.03646	39.4712
2.03566	39.4561
2.03486	39.6479
2.03407	39.5983
2.03327	39.3449
2.03247	39.1032
2.03167	39.2023
2.03088	39.3672
2.03008	39.2322
2.02929	39.3075
2.0285	39.2728
2.0277	39.4361
2.02691	39.5751
2.02612	39.288
2.02533	39.0184
2.02453	39.1138
2.02374	39.3368
2.02295	39.4752
2.02217	39.3719
2.02138	39.0966
2.02059	38.9363
2.0198	39.1489
2.01902	39.212
2.01823	39.0548
2.01744	39.1123
2.01666	39.1248
2.01588	39.1809
2.01509	39.0027
2.01431	38.9042
2.01353	39.0153
2.01275	39.0399
2.01196	38.7428
2.01118	38.6609
2.0104	38.7625
2.00963	38.7107
2.00885	38.6435
2.00807	38.6862
2.00729	38.7675
2.00651	38.952
2.00574	38.9844
2.00496	38.7992
2.00419	38.7548
2.00341	38.6798
2.00264	38.6137
2.00187	38.5068
2.00109	38.5869
2.00032	38.6397
