Name: Stilbite NaCa_2Al_5Si_3O_36.14H_2O
Type: Mineral
Class: Silicates
Subclass: Tectosilicates
Particle Size: 45-125um
Sample No.: TS-9A
Owner: JPL
Wavelength range: IR
Origin: India
Collected by Grieger's Inc.
Description: 





Measurement: Hemispherical reflectance
First Column: X
Second Column: Y
X Units:  Wavelength (micrometers)
Y Units:  Reflectance (percent)
First X Value: 15.3853
Last X Value: 2.00032
Number of X Values: 2256
Additional information: ts09aa.txt
 
15.3853	0.983602
15.3397	1.31799
15.2945	1.35956
15.2495	0.869411
15.2048	0.898173
15.1603	1.17071
15.1161	1.34855
15.0722	1.22923
15.0285	1.06287
14.9851	1.09182
14.9419	1.50541
14.8989	1.71518
14.8563	1.50336
14.8138	1.38264
14.7716	1.47368
14.7296	1.46053
14.6879	1.54345
14.6464	1.5373
14.6052	1.50302
14.5641	1.52879
14.5233	1.53144
14.4828	1.66337
14.4424	1.74033
14.4023	1.70295
14.3624	1.4138
14.3227	1.48205
14.2833	1.54113
14.244	1.5346
14.205	1.65295
14.1662	1.83528
14.1276	1.90115
14.0892	1.96286
14.051	1.84066
14.0131	1.56637
13.9753	1.50522
13.9377	1.74223
13.9004	1.8838
13.8632	1.71281
13.8262	1.65819
13.7895	1.69555
13.7529	1.61314
13.7165	1.60959
13.6803	1.47906
13.6443	1.3437
13.6085	1.29155
13.5729	1.30961
13.5374	1.4347
13.5022	1.62027
13.4671	1.52205
13.4322	1.47035
13.3975	1.59041
13.363	1.57604
13.3286	1.68569
13.2944	1.83351
13.2604	1.61591
13.2266	1.55615
13.193	1.64021
13.1595	1.72572
13.1262	1.74438
13.093	1.64
13.06	1.63018
13.0272	1.82019
12.9946	1.78611
12.9621	1.6856
12.9298	1.76081
12.8976	1.80974
12.8656	1.72724
12.8337	1.64635
12.8021	1.73803
12.7705	1.69937
12.7391	1.66635
12.7079	1.62916
12.6769	1.53526
12.6459	1.60166
12.6152	1.74137
12.5845	1.6867
12.5541	1.65214
12.5238	1.74936
12.4936	1.81431
12.4635	1.89187
12.4337	1.82379
12.4039	1.69473
12.3743	1.73954
12.3448	1.81392
12.3155	1.83742
12.2863	1.93376
12.2573	2.08685
12.2284	2.00836
12.1996	1.95806
12.171	2.15826
12.1425	2.43601
12.1141	2.53583
12.0859	2.55317
12.0578	2.57956
12.0298	2.56013
12.0019	2.54567
11.9742	2.65946
11.9466	2.81991
11.9192	2.85402
11.8918	2.77472
11.8646	2.83242
11.8375	2.89899
11.8106	3.01516
11.7837	3.06348
11.757	3.07967
11.7304	3.06162
11.7039	3.07861
11.6776	3.25236
11.6513	3.25422
11.6252	3.28691
11.5992	3.31112
11.5733	3.33918
11.5475	3.29649
11.5219	3.33338
11.4963	3.44948
11.4709	3.55036
11.4455	3.70565
11.4203	3.75188
11.3952	3.6689
11.3702	3.68543
11.3454	3.83419
11.3206	3.84554
11.2959	3.83966
11.2714	3.84591
11.2469	3.83207
11.2226	3.82945
11.1983	3.8788
11.1742	3.98791
11.1502	4.07378
11.1263	4.05612
11.1024	3.99848
11.0787	4.05657
11.0551	4.12249
11.0316	4.16824
11.0081	4.33758
10.9848	4.34685
10.9616	4.29762
10.9385	4.33207
10.9154	4.37565
10.8925	4.45826
10.8697	4.47618
10.8469	4.53168
10.8243	4.62896
10.8017	4.7821
10.7793	4.89425
10.7569	4.9014
10.7346	4.87443
10.7125	4.96344
10.6904	4.98645
10.6684	4.99247
10.6465	5.20608
10.6247	5.37262
10.6029	5.41673
10.5813	5.4892
10.5597	5.53056
10.5383	5.65733
10.5169	5.91764
10.4956	6.01452
10.4744	6.05864
10.4533	6.28368
10.4323	6.53294
10.4113	6.69688
10.3904	6.92474
10.3697	7.20182
10.349	7.3529
10.3284	7.56358
10.3078	7.75305
10.2874	7.88527
10.267	8.16461
10.2467	8.45338
10.2265	8.7953
10.2064	9.14534
10.1863	9.35775
10.1663	9.64114
10.1464	9.98017
10.1266	10.2353
10.1069	10.3803
10.0872	10.6764
10.0676	11.0195
10.0481	11.2546
10.0287	11.4964
10.0093	11.683
9.99005	11.8662
9.97084	12.135
9.95169	12.4237
9.93263	12.666
9.91364	13.0251
9.89472	13.3017
9.87587	13.5876
9.8571	13.8317
9.83839	14.115
9.81976	14.44
9.80119	14.7314
9.78271	15.0577
9.76428	15.2773
9.74592	15.6009
9.72764	15.9885
9.70943	16.2776
9.69128	16.5176
9.6732	16.7197
9.65518	16.9534
9.63724	17.1807
9.61935	17.4282
9.60155	17.7484
9.5838	18.0171
9.56611	18.2482
9.5485	18.3538
9.53094	18.469
9.51345	18.8003
9.49604	19.0953
9.47867	19.1922
9.46137	19.2607
9.44414	19.4366
9.42697	19.6672
9.40986	19.7534
9.39281	19.8213
9.37583	19.875
9.35891	19.6098
9.34204	19.2586
9.32524	18.8733
9.3085	18.3968
9.29182	17.8686
9.27519	17.1588
9.25863	16.1307
9.24213	15.1275
9.22568	14.4294
9.2093	13.7038
9.19297	12.8923
9.17669	12.1918
9.16048	11.4754
9.14433	10.7915
9.12823	10.231
9.11218	9.57762
9.0962	9.03036
9.08027	8.55974
9.06439	8.10637
9.04858	7.75899
9.03281	7.36274
9.0171	7.02386
9.00145	6.77581
8.98585	6.39967
8.9703	6.10298
8.9548	5.96615
8.93937	5.86036
8.92398	5.78998
8.90865	5.70562
8.89337	5.60334
8.87814	5.51779
8.86296	5.45154
8.84784	5.42686
8.83277	5.35546
8.81774	5.3406
8.80277	5.27588
8.78786	5.18766
8.77298	5.19938
8.75816	5.39194
8.7434	5.45479
8.72868	5.32683
8.714	5.24474
8.69938	5.2403
8.68481	5.24521
8.67029	5.20349
8.65581	5.12458
8.64139	5.003
8.62701	4.88035
8.61268	4.85751
8.5984	4.8832
8.58416	4.65395
8.56997	4.34116
8.55583	4.3128
8.54174	4.42332
8.52769	4.27279
8.51368	4.0661
8.49973	3.87316
8.48582	3.79008
8.47195	3.7577
8.45813	3.7177
8.44436	3.75651
8.43062	3.67125
8.41693	3.57251
8.4033	3.53577
8.3897	3.45024
8.37614	3.31897
8.36264	3.15753
8.34917	3.01294
8.33574	2.89685
8.32236	2.77776
8.30903	2.72987
8.29573	2.49555
8.28248	2.19904
8.26927	1.90742
8.2561	1.55443
8.24298	1.31431
8.2299	1.27148
8.21685	1.19021
8.20385	0.959766
8.19089	0.724342
8.17797	0.629402
8.16509	0.507694
8.15225	0.315936
8.13946	0.233276
8.1267	0.23671
8.11398	0.212658
8.10131	0.245399
8.08867	0.320657
8.07606	0.292618
8.0635	0.15315
8.05099	-0.0403442
8.0385	0.00407816
8.02606	0.0605906
8.01366	0.0635295
8.00129	0.0953434
7.98896	0.0724682
7.97667	0.0478079
7.96442	0.0607209
7.9522	0.0583955
7.94002	-0.0218778
7.92788	-0.0139355
7.91578	0.0455834
7.90371	0.0545213
7.89168	0.084757
7.87969	0.10737
7.86773	0.083571
7.85581	0.159609
7.84392	0.212629
7.83207	0.214657
7.82026	0.144071
7.80849	0.128113
7.79674	0.148536
7.78503	0.191767
7.77337	0.175247
7.76173	0.19176
7.75012	0.257979
7.73856	0.264978
7.72703	0.332849
7.71553	0.375951
7.70406	0.274694
7.69263	0.293366
7.68123	0.327662
7.66987	0.225207
7.65855	0.230183
7.64725	0.265927
7.63598	0.286766
7.62475	0.340785
7.61356	0.31339
7.60239	0.263958
7.59126	0.291056
7.58017	0.284614
7.5691	0.368884
7.55806	0.453329
7.54707	0.365441
7.5361	0.407494
7.52516	0.441919
7.51425	0.514407
7.50338	0.586091
7.49253	0.505738
7.48172	0.43858
7.47094	0.498559
7.46019	0.524595
7.44947	0.537962
7.43879	0.586695
7.42813	0.513312
7.4175	0.438193
7.4069	0.552507
7.39634	0.659316
7.3858	0.59937
7.37529	0.565058
7.36482	0.654804
7.35437	0.633975
7.34396	0.547448
7.33357	0.600196
7.32321	0.64433
7.31288	0.669418
7.30258	0.679511
7.29231	0.699627
7.28207	0.797065
7.27185	0.844109
7.26167	0.841658
7.25152	0.833789
7.24139	0.94184
7.23129	0.988604
7.22122	0.933345
7.21117	0.892718
7.20116	0.886844
7.19117	0.920292
7.18121	0.946845
7.17128	0.955746
7.16137	1.03402
7.1515	1.1121
7.14164	1.07231
7.13182	0.952175
7.12203	0.886701
7.11225	0.971745
7.10251	1.03567
7.0928	1.05269
7.08311	1.03807
7.07344	0.996073
7.06381	1.01522
7.0542	1.04581
7.04461	1.17751
7.03506	1.22221
7.02552	1.21937
7.01601	1.2854
7.00653	1.22722
6.99708	1.18473
6.98765	1.16206
6.97824	1.29395
6.96886	1.39555
6.95951	1.31153
6.95018	1.22123
6.94087	1.26328
6.9316	1.34743
6.92234	1.32631
6.91311	1.29622
6.90391	1.3389
6.89473	1.3574
6.88557	1.30282
6.87644	1.32235
6.86733	1.39594
6.85824	1.43512
6.84918	1.37729
6.84015	1.38615
6.83114	1.45396
6.82215	1.50753
6.81319	1.51956
6.80424	1.47662
6.79532	1.44979
6.78643	1.41739
6.77756	1.4782
6.76871	1.57363
6.75989	1.64298
6.75109	1.63061
6.74231	1.55933
6.73355	1.46311
6.72482	1.43455
6.71611	1.50894
6.70742	1.58791
6.69875	1.55322
6.69011	1.57606
6.68149	1.69409
6.67289	1.67868
6.66431	1.63136
6.65576	1.68344
6.64722	1.63554
6.63871	1.5077
6.63022	1.60341
6.62175	1.73818
6.61331	1.62553
6.60488	1.61498
6.59648	1.69308
6.5881	1.66031
6.57974	1.62674
6.5714	1.66011
6.56308	1.65936
6.55478	1.69761
6.54651	1.74137
6.53825	1.65037
6.53001	1.63956
6.5218	1.69428
6.51361	1.72917
6.50544	1.68558
6.49729	1.63601
6.48915	1.6763
6.48104	1.63472
6.47295	1.61914
6.46488	1.64707
6.45683	1.7796
6.4488	1.83573
6.44079	1.68765
6.4328	1.57624
6.42482	1.61521
6.41687	1.6607
6.40894	1.6896
6.40103	1.6434
6.39314	1.5989
6.38526	1.50558
6.37741	1.5163
6.36957	1.54617
6.36176	1.5614
6.35396	1.55974
6.34618	1.55408
6.33843	1.52777
6.33069	1.46389
6.32297	1.48089
6.31527	1.49138
6.30758	1.51981
6.29992	1.4747
6.29227	1.40494
6.28465	1.46397
6.27704	1.528
6.26945	1.5448
6.26188	1.56225
6.25432	1.5039
6.24679	1.4636
6.23927	1.4079
6.23177	1.2994
6.22429	1.27656
6.21683	1.29985
6.20938	1.32649
6.20195	1.33949
6.19454	1.2858
6.18715	1.26449
6.17978	1.34063
6.17242	1.37444
6.16508	1.3821
6.15776	1.31164
6.15045	1.25799
6.14317	1.31834
6.1359	1.2985
6.12864	1.21766
6.12141	1.21183
6.11419	1.20722
6.10699	1.19823
6.0998	1.13772
6.09263	1.00787
6.08549	0.976998
6.07835	0.944381
6.07123	0.877187
6.06413	0.875839
6.05705	0.937008
6.04998	0.878218
6.04293	0.816528
6.0359	0.76265
6.02888	0.764016
6.02187	0.810711
6.01489	0.776376
6.00792	0.751295
6.00096	0.768375
5.99403	0.801272
5.98711	0.774551
5.9802	0.768559
5.97331	0.794973
5.96644	0.782301
5.95958	0.795111
5.95274	0.800948
5.94591	0.783078
5.9391	0.830893
5.9323	0.83508
5.92552	0.861225
5.91876	0.926033
5.91201	0.876877
5.90528	0.851183
5.89856	0.87795
5.89186	0.920099
5.88517	0.941945
5.8785	0.958949
5.87184	1.03012
5.8652	1.09593
5.85857	1.11286
5.85196	1.12793
5.84536	1.16009
5.83878	1.26291
5.83221	1.37651
5.82566	1.45773
5.81912	1.55355
5.81259	1.6027
5.80608	1.60947
5.79959	1.68434
5.79311	1.8033
5.78665	1.78077
5.78019	1.75786
5.77376	1.81774
5.76734	1.94073
5.76093	2.00782
5.75453	2.06432
5.74815	2.20791
5.74179	2.24668
5.73543	2.20186
5.7291	2.16047
5.72277	2.23158
5.71646	2.35864
5.71017	2.40421
5.70389	2.36349
5.69762	2.40757
5.69136	2.52505
5.68513	2.57785
5.6789	2.59887
5.67268	2.59711
5.66648	2.64174
5.6603	2.67882
5.65413	2.68783
5.64797	2.77021
5.64182	2.81707
5.63569	2.76949
5.62957	2.77327
5.62347	2.8681
5.61737	2.92623
5.61129	2.90883
5.60522	2.89199
5.59917	2.96157
5.59313	3.03539
5.5871	3.03709
5.58109	3.00471
5.57509	3.00008
5.5691	3.01693
5.56312	3.13706
5.55716	3.23107
5.55121	3.22574
5.54528	3.27377
5.53935	3.3221
5.53344	3.29898
5.52754	3.28194
5.52166	3.36717
5.51578	3.464
5.50992	3.57454
5.50407	3.57959
5.49823	3.58612
5.49241	3.64497
5.4866	3.63681
5.4808	3.63445
5.47501	3.72472
5.46923	3.79178
5.46347	3.86358
5.45772	3.85871
5.45198	3.89438
5.44625	3.97285
5.44054	4.11503
5.43484	4.20217
5.42914	4.20943
5.42347	4.29416
5.4178	4.43626
5.41214	4.48652
5.4065	4.5102
5.40087	4.5353
5.39525	4.50747
5.38964	4.55651
5.38404	4.6281
5.37846	4.69093
5.37288	4.79038
5.36732	4.86527
5.36177	4.8196
5.35623	4.80411
5.35071	4.88714
5.34519	4.93936
5.33968	4.95915
5.33419	4.9858
5.32871	4.9215
5.32324	4.90665
5.31778	4.96049
5.31233	5.05509
5.30689	5.08549
5.30147	5.04799
5.29605	5.05035
5.29065	5.12624
5.28525	5.22854
5.27987	5.3041
5.2745	5.26961
5.26914	5.2154
5.26379	5.23978
5.25845	5.31239
5.25312	5.32361
5.24781	5.32819
5.2425	5.38699
5.23721	5.35122
5.23192	5.3993
5.22665	5.47838
5.22138	5.49888
5.21613	5.54586
5.21089	5.57223
5.20566	5.62109
5.20044	5.60956
5.19522	5.68176
5.19002	5.78527
5.18483	5.82769
5.17965	5.82775
5.17448	5.86161
5.16933	5.93858
5.16418	5.99937
5.15904	6.07312
5.15391	6.13259
5.14879	6.18499
5.14368	6.21416
5.13859	6.26967
5.1335	6.33654
5.12842	6.39364
5.12335	6.44827
5.1183	6.49084
5.11325	6.55171
5.10821	6.64923
5.10318	6.70134
5.09817	6.69617
5.09316	6.72574
5.08816	6.84838
5.08317	6.94041
5.07819	6.94697
5.07322	6.92049
5.06826	6.96764
5.06331	7.1155
5.05837	7.22256
5.05344	7.23301
5.04852	7.16549
5.04361	7.19187
5.03871	7.30418
5.03382	7.37512
5.02894	7.43085
5.02406	7.48682
5.0192	7.46003
5.01435	7.44143
5.0095	7.44414
5.00467	7.4946
4.99984	7.54742
4.99502	7.51333
4.99021	7.47847
4.98542	7.46915
4.98063	7.4293
4.97585	7.46896
4.97108	7.55893
4.96632	7.66767
4.96156	7.63549
4.95682	7.52448
4.95209	7.42826
4.94736	7.48341
4.94264	7.54164
4.93794	7.43991
4.93324	7.40031
4.92855	7.3972
4.92387	7.33158
4.9192	7.3858
4.91453	7.38581
4.90988	7.2931
4.90524	7.27706
4.9006	7.26251
4.89597	7.2474
4.89135	7.23871
4.88674	7.25238
4.88214	7.22978
4.87755	7.13253
4.87296	7.11095
4.86839	7.19661
4.86382	7.14333
4.85926	7.06451
4.85471	6.98414
4.85017	6.94204
4.84564	7.02825
4.84111	6.99008
4.8366	6.87739
4.83209	6.84809
4.82759	6.84042
4.8231	6.72089
4.81862	6.71083
4.81415	6.80405
4.80968	6.79006
4.80522	6.6879
4.80077	6.64143
4.79633	6.65805
4.7919	6.60533
4.78747	6.49555
4.78306	6.43858
4.77865	6.45938
4.77425	6.41628
4.76986	6.33737
4.76547	6.36853
4.7611	6.30432
4.75673	6.25236
4.75237	6.23019
4.74802	6.20605
4.74367	6.17357
4.73934	6.22213
4.73501	6.26166
4.73069	6.16357
4.72638	6.01432
4.72207	5.94131
4.71777	5.90349
4.71348	5.87467
4.7092	5.81393
4.70493	5.78657
4.70066	5.76321
4.69641	5.75613
4.69216	5.79112
4.68791	5.74121
4.68368	5.66349
4.67945	5.62278
4.67523	5.66111
4.67102	5.63538
4.66682	5.55186
4.66262	5.51443
4.65843	5.4585
4.65425	5.44515
4.65007	5.49272
4.64591	5.42599
4.64175	5.37083
4.6376	5.39216
4.63345	5.38969
4.62932	5.2853
4.62519	5.28121
4.62106	5.35856
4.61695	5.36731
4.61284	5.34047
4.60874	5.32613
4.60465	5.30929
4.60056	5.26434
4.59648	5.30703
4.59241	5.35045
4.58835	5.33535
4.58429	5.32499
4.58024	5.34132
4.5762	5.29781
4.57216	5.22342
4.56814	5.27149
4.56411	5.30241
4.5601	5.28146
4.55609	5.26136
4.55209	5.24931
4.5481	5.27064
4.54411	5.26782
4.54013	5.33787
4.53616	5.32768
4.5322	5.28771
4.52824	5.37791
4.52429	5.39577
4.52034	5.29114
4.51641	5.27547
4.51247	5.30827
4.50855	5.33918
4.50463	5.4519
4.50072	5.52361
4.49682	5.57553
4.49292	5.51039
4.48903	5.41889
4.48515	5.42967
4.48127	5.5248
4.4774	5.58911
4.47354	5.5981
4.46968	5.54669
4.46584	5.53527
4.46199	5.64822
4.45815	5.69817
4.45432	5.74021
4.4505	5.81015
4.44668	5.76667
4.44287	5.72816
4.43907	5.8109
4.43527	5.91315
4.43148	5.95744
4.4277	5.98732
4.42392	6.06782
4.42015	6.09507
4.41638	6.12665
4.41262	6.21491
4.40887	6.23825
4.40513	6.26751
4.40139	6.28476
4.39765	6.27774
4.39393	6.38453
4.39021	6.47717
4.38649	6.59731
4.38278	6.65657
4.37908	6.6198
4.37539	6.59406
4.3717	6.6681
4.36801	6.76989
4.36434	6.81643
4.36067	6.9676
4.357	7.03329
4.35335	7.13333
4.34969	7.29412
4.34605	7.38333
4.34241	7.35668
4.33877	7.41427
4.33514	7.55484
4.33152	7.63722
4.32791	7.67198
4.3243	7.71802
4.32069	7.83684
4.3171	7.98261
4.31351	8.1045
4.30992	8.12696
4.30634	8.19029
4.30277	8.26631
4.2992	8.33545
4.29564	8.44437
4.29208	8.60613
4.28853	8.66776
4.28499	8.6991
4.28145	8.85365
4.27792	8.95545
4.27439	9.05278
4.27087	9.18105
4.26735	9.37182
4.26384	9.66602
4.26034	9.93757
4.25684	10.1048
4.25335	10.1411
4.24986	10.1379
4.24638	10.1745
4.24291	10.2668
4.23944	10.3311
4.23598	10.4307
4.23252	10.5925
4.22906	10.7825
4.22562	10.9561
4.22218	11.0968
4.21874	11.2591
4.21531	11.4913
4.21189	11.7645
4.20847	12.0296
4.20506	12.2762
4.20165	12.5475
4.19825	12.7366
4.19485	12.883
4.19146	12.9896
4.18807	13.2165
4.18469	13.4712
4.18132	13.5653
4.17795	13.6539
4.17458	13.8278
4.17123	14.0992
4.16787	14.3289
4.16453	14.4493
4.16118	14.5557
4.15785	14.7366
4.15451	14.9809
4.15119	15.146
4.14787	15.2438
4.14455	15.3511
4.14124	15.5704
4.13794	15.7793
4.13464	15.9274
4.13134	16.1001
4.12805	16.2799
4.12477	16.3794
4.12149	16.4675
4.11822	16.6277
4.11495	16.7999
4.11168	16.9752
4.10843	17.2161
4.10517	17.4179
4.10192	17.5183
4.09868	17.6496
4.09545	17.9422
4.09221	18.1473
4.08899	18.2687
4.08576	18.4358
4.08255	18.5824
4.07933	18.7495
4.07613	18.9465
4.07292	19.0921
4.06973	19.2715
4.06654	19.4759
4.06335	19.6397
4.06017	19.7386
4.05699	19.8594
4.05382	20.0504
4.05065	20.2241
4.04749	20.4375
4.04433	20.5425
4.04118	20.621
4.03803	20.9135
4.03489	21.1316
4.03175	21.2252
4.02862	21.3791
4.02549	21.4875
4.02237	21.6186
4.01925	21.7832
4.01614	21.8876
4.01303	21.974
4.00993	22.1352
4.00683	22.3153
4.00373	22.4894
4.00064	22.6328
3.99756	22.771
3.99448	22.9207
3.9914	22.986
3.98833	23.1215
3.98527	23.2336
3.98221	23.3099
3.97915	23.4753
3.9761	23.629
3.97305	23.6841
3.97001	23.7424
3.96697	23.8987
3.96394	24.0391
3.96091	24.0498
3.95789	24.1293
3.95487	24.2729
3.95186	24.308
3.94885	24.3007
3.94584	24.4029
3.94284	24.5534
3.93984	24.6074
3.93685	24.6553
3.93386	24.7516
3.93088	24.818
3.9279	24.856
3.92493	24.8047
3.92196	24.7537
3.919	24.8444
3.91604	25.0497
3.91308	25.0387
3.91013	24.9532
3.90718	24.9614
3.90424	25.1327
3.9013	25.2274
3.89837	25.2206
3.89544	25.1825
3.89252	25.1583
3.8896	25.2046
3.88668	25.176
3.88377	25.1718
3.88086	25.1961
3.87796	25.187
3.87506	25.1791
3.87217	25.2632
3.86928	25.2651
3.86639	25.2059
3.86351	25.133
3.86064	25.1331
3.85776	25.1727
3.8549	25.1885
3.85203	25.1366
3.84917	25.0829
3.84631	25.0455
3.84346	25.059
3.84062	25.0047
3.83777	25.0296
3.83494	25.007
3.8321	24.878
3.82927	24.8056
3.82644	24.6785
3.82362	24.645
3.82081	24.6792
3.81799	24.6552
3.81518	24.5964
3.81238	24.5225
3.80958	24.5019
3.80678	24.4853
3.80399	24.4285
3.8012	24.3474
3.79841	24.2232
3.79563	24.1511
3.79286	24.0852
3.79008	23.9831
3.78731	23.8196
3.78455	23.8001
3.78179	23.8294
3.77903	23.7572
3.77628	23.6592
3.77353	23.5648
3.77079	23.4908
3.76805	23.3866
3.76531	23.2335
3.76258	23.1057
3.75985	22.9833
3.75713	22.9571
3.7544	22.9539
3.75169	22.8654
3.74898	22.7599
3.74627	22.7053
3.74356	22.6038
3.74086	22.4774
3.73816	22.3896
3.73547	22.3036
3.73278	22.1536
3.7301	21.9763
3.72741	21.911
3.72474	21.8911
3.72206	21.8509
3.71939	21.6421
3.71673	21.4342
3.71406	21.423
3.71141	21.357
3.70875	21.2484
3.7061	21.0944
3.70345	20.9759
3.70081	20.8745
3.69817	20.8293
3.69553	20.7318
3.6929	20.5712
3.69027	20.4744
3.68765	20.3866
3.68503	20.2318
3.68241	20.1028
3.6798	19.9726
3.67719	19.8043
3.67458	19.6773
3.67198	19.5367
3.66938	19.4587
3.66678	19.4211
3.66419	19.3263
3.66161	19.2108
3.65902	19.0548
3.65644	18.8769
3.65387	18.7352
3.65129	18.6058
3.64872	18.4427
3.64616	18.363
3.64359	18.285
3.64103	18.1546
3.63848	18.033
3.63593	17.8758
3.63338	17.689
3.63084	17.5024
3.6283	17.3945
3.62576	17.3127
3.62322	17.1265
3.62069	16.9282
3.61817	16.7499
3.61564	16.6431
3.61312	16.5431
3.61061	16.4628
3.6081	16.3938
3.60559	16.1988
3.60308	15.996
3.60058	15.9271
3.59808	15.8134
3.59558	15.6681
3.59309	15.4855
3.59061	15.3579
3.58812	15.2441
3.58564	15.0819
3.58316	14.8601
3.58069	14.6399
3.57822	14.5707
3.57575	14.5624
3.57328	14.5006
3.57082	14.3853
3.56836	14.165
3.56591	13.9725
3.56346	13.8063
3.56101	13.7301
3.55857	13.6937
3.55613	13.5744
3.55369	13.4195
3.55126	13.263
3.54883	13.045
3.5464	12.863
3.54397	12.8059
3.54155	12.7219
3.53914	12.5629
3.53672	12.3971
3.53431	12.2654
3.5319	12.217
3.5295	12.0833
3.5271	11.9107
3.5247	11.7579
3.52231	11.6418
3.51991	11.5185
3.51753	11.468
3.51514	11.3286
3.51276	11.1594
3.51038	11.024
3.50801	10.9105
3.50563	10.7755
3.50327	10.5988
3.5009	10.4317
3.49854	10.2703
3.49618	10.191
3.49382	10.1878
3.49147	10.0617
3.48912	9.91954
3.48677	9.78459
3.48443	9.59965
3.48209	9.56831
3.47975	9.40795
3.47742	9.15477
3.47509	8.93183
3.47276	8.9146
3.47044	8.8318
3.46812	8.68899
3.4658	8.53297
3.46348	8.48127
3.46117	8.43276
3.45886	8.22665
3.45656	8.07683
3.45425	8.03424
3.45195	8.04851
3.44966	7.98452
3.44736	7.82141
3.44507	7.63437
3.44279	7.55766
3.4405	7.43329
3.43822	7.32048
3.43594	7.22364
3.43367	7.12821
3.43139	7.05266
3.42912	6.91328
3.42686	6.74066
3.42459	6.65968
3.42233	6.55833
3.42007	6.46736
3.41782	6.38936
3.41557	6.37273
3.41332	6.23545
3.41108	6.14992
3.40883	6.06023
3.40659	5.93507
3.40435	5.88854
3.40212	5.89364
3.39989	5.88173
3.39766	5.76242
3.39544	5.57377
3.39322	5.41359
3.391	5.40165
3.38878	5.39052
3.38657	5.27168
3.38436	5.09757
3.38215	4.99262
3.37994	4.9786
3.37774	4.95115
3.37554	4.84473
3.37335	4.85781
3.37115	4.81687
3.36896	4.71037
3.36678	4.60878
3.36459	4.55546
3.36241	4.51587
3.36023	4.46028
3.35805	4.46676
3.35588	4.39444
3.35371	4.26794
3.35154	4.20821
3.34938	4.17151
3.34721	4.12042
3.34505	4.04698
3.3429	3.9396
3.34074	3.93273
3.33859	3.89958
3.33644	3.94596
3.3343	3.88176
3.33215	3.85113
3.33001	3.84184
3.32788	3.74924
3.32574	3.55067
3.32361	3.55931
3.32148	3.63401
3.31936	3.51772
3.31723	3.40416
3.31511	3.42243
3.31299	3.34401
3.31088	3.33141
3.30876	3.34433
3.30665	3.28742
3.30455	3.28222
3.30244	3.32009
3.30034	3.28617
3.29824	3.27436
3.29614	3.26317
3.29405	3.19646
3.29196	3.05797
3.28987	2.94312
3.28778	2.87014
3.2857	2.9066
3.28362	2.8709
3.28154	2.96771
3.27946	2.96753
3.27739	2.80841
3.27532	2.78303
3.27325	2.74796
3.27119	2.79632
3.26913	2.88759
3.26707	2.78143
3.26501	2.67887
3.26295	2.63028
3.2609	2.61374
3.25885	2.62561
3.2568	2.65951
3.25476	2.58843
3.25272	2.58281
3.25068	2.62818
3.24864	2.61528
3.24661	2.51216
3.24458	2.44926
3.24255	2.45093
3.24052	2.45285
3.2385	2.41053
3.23648	2.35001
3.23446	2.37362
3.23244	2.36142
3.23043	2.39506
3.22841	2.42406
3.2264	2.35023
3.2244	2.44731
3.22239	2.54426
3.22039	2.40619
3.21839	2.20176
3.2164	2.13159
3.2144	2.18536
3.21241	2.33646
3.21042	2.38162
3.20844	2.24439
3.20645	2.15208
3.20447	2.17407
3.20249	2.26028
3.20051	2.22717
3.19854	2.09847
3.19657	2.13167
3.1946	2.30176
3.19263	2.27772
3.19067	2.1647
3.1887	2.029
3.18674	2.02094
3.18479	2.11481
3.18283	2.24058
3.18088	2.21291
3.17893	2.20358
3.17698	2.15575
3.17504	2.07245
3.17309	2.01098
3.17115	1.99139
3.16921	2.01753
3.16728	2.07584
3.16534	2.03431
3.16341	1.92925
3.16148	1.93854
3.15956	1.93967
3.15763	1.89751
3.15571	1.9096
3.15379	2.00431
3.15187	2.01861
3.14996	1.90407
3.14805	1.96608
3.14614	2.02121
3.14423	2.01353
3.14232	1.92591
3.14042	1.89876
3.13852	1.87615
3.13662	1.93006
3.13472	1.99753
3.13283	1.97829
3.13094	1.96014
3.12905	1.89723
3.12716	1.82957
3.12528	1.87384
3.12339	1.90086
3.12151	1.8733
3.11964	1.84211
3.11776	1.79085
3.11589	1.79074
3.11401	1.75257
3.11214	1.76816
3.11028	1.92977
3.10841	2.10846
3.10655	2.02646
3.10469	1.83187
3.10283	1.79087
3.10098	1.84927
3.09912	1.95751
3.09727	1.99207
3.09542	1.87705
3.09358	1.87526
3.09173	1.95476
3.08989	1.97569
3.08805	1.92213
3.08621	1.75996
3.08437	1.64068
3.08254	1.76353
3.08071	1.9051
3.07888	1.87297
3.07705	1.8544
3.07523	1.7171
3.0734	1.64044
3.07158	1.87285
3.06977	1.89407
3.06795	1.76707
3.06613	1.74938
3.06432	1.70857
3.06251	1.76532
3.0607	1.85102
3.0589	1.80786
3.0571	1.67922
3.05529	1.62879
3.05349	1.70563
3.0517	1.70543
3.0499	1.66815
3.04811	1.73991
3.04632	1.81916
3.04453	1.80788
3.04274	1.73307
3.04096	1.70951
3.03918	1.87348
3.0374	2.04795
3.03562	1.89402
3.03384	1.73343
3.03207	1.66136
3.03029	1.6716
3.02852	1.72617
3.02676	1.66403
3.02499	1.5661
3.02323	1.69297
3.02146	1.81495
3.0197	1.91094
3.01795	2.01944
3.01619	1.95937
3.01444	1.81776
3.01269	1.68632
3.01094	1.65726
3.00919	1.72967
3.00744	1.82026
3.0057	1.83719
3.00396	1.74421
3.00222	1.64716
3.00048	1.75149
2.99875	1.81127
2.99701	1.72841
2.99528	1.7272
2.99355	1.69109
2.99183	1.82409
2.9901	1.76501
2.98838	1.68307
2.98666	1.80904
2.98494	2.03661
2.98322	1.90212
2.9815	1.7132
2.97979	1.72837
2.97808	1.7848
2.97637	1.74671
2.97466	1.72708
2.97295	1.77731
2.97125	2.03492
2.96955	1.92837
2.96785	1.50915
2.96615	1.46526
2.96446	1.6121
2.96276	1.6771
2.96107	1.76156
2.95938	1.79182
2.95769	1.76397
2.95601	1.70863
2.95432	1.74927
2.95264	1.77172
2.95096	1.78621
2.94928	1.73358
2.9476	1.6663
2.94593	1.63895
2.94425	1.60545
2.94258	1.58556
2.94092	1.54171
2.93925	1.52831
2.93758	1.68014
2.93592	1.78009
2.93426	1.75235
2.9326	1.64476
2.93094	1.58861
2.92928	1.45973
2.92763	1.42087
2.92598	1.53404
2.92433	1.66003
2.92268	1.7352
2.92103	1.74903
2.91939	1.7112
2.91775	1.81366
2.9161	1.80872
2.91447	1.72752
2.91283	1.71592
2.91119	1.68554
2.90956	1.68617
2.90793	1.69565
2.9063	1.61451
2.90467	1.68194
2.90304	1.90494
2.90142	1.92586
2.89979	1.8184
2.89817	1.70154
2.89656	1.6545
2.89494	1.72822
2.89332	1.69099
2.89171	1.61597
2.8901	1.59532
2.88849	1.61107
2.88688	1.6187
2.88527	1.56482
2.88367	1.5956
2.88206	1.5951
2.88046	1.64376
2.87886	1.73685
2.87727	1.69549
2.87567	1.57502
2.87408	1.55544
2.87248	1.65395
2.87089	1.59648
2.8693	1.54219
2.86772	1.55404
2.86613	1.50627
2.86455	1.53573
2.86297	1.60796
2.86139	1.65881
2.85981	1.49532
2.85823	1.42908
2.85666	1.62838
2.85508	1.71009
2.85351	1.60829
2.85194	1.64101
2.85038	1.63632
2.84881	1.48411
2.84724	1.45602
2.84568	1.4832
2.84412	1.55627
2.84256	1.61799
2.841	1.52339
2.83945	1.52076
2.83789	1.52629
2.83634	1.52022
2.83479	1.48815
2.83324	1.42792
2.83169	1.42961
2.83015	1.47351
2.82861	1.62903
2.82706	1.64067
2.82552	1.6321
2.82398	1.53692
2.82245	1.51931
2.82091	1.51118
2.81938	1.39113
2.81784	1.38333
2.81631	1.36631
2.81479	1.4407
2.81326	1.6243
2.81173	1.55445
2.81021	1.38807
2.80869	1.37709
2.80716	1.40277
2.80565	1.47111
2.80413	1.48058
2.80261	1.39189
2.8011	1.30162
2.79959	1.35927
2.79808	1.38738
2.79657	1.37574
2.79506	1.39973
2.79355	1.35679
2.79205	1.32623
2.79055	1.25859
2.78904	1.16801
2.78754	1.23197
2.78605	1.42412
2.78455	1.4755
2.78306	1.47723
2.78156	1.31794
2.78007	1.23023
2.77858	1.36268
2.77709	1.36439
2.77561	1.27059
2.77412	1.24989
2.77264	1.21969
2.77116	1.40022
2.76968	1.32035
2.7682	1.13516
2.76672	1.19872
2.76524	1.33363
2.76377	1.25418
2.7623	1.20877
2.76083	1.17141
2.75936	1.17384
2.75789	1.03653
2.75642	0.814306
2.75496	0.858411
2.7535	1.04444
2.75203	1.09692
2.75057	1.23133
2.74912	1.44588
2.74766	1.31617
2.7462	1.12457
2.74475	1.30935
2.7433	1.58166
2.74185	1.53789
2.7404	1.49582
2.73895	1.32584
2.7375	1.04406
2.73606	0.92013
2.73462	0.965754
2.73318	1.13453
2.73174	1.24473
2.7303	1.40236
2.72886	1.46148
2.72742	1.40293
2.72599	1.47636
2.72456	1.6874
2.72313	1.61833
2.7217	1.46894
2.72027	1.53164
2.71884	1.60696
2.71742	1.71397
2.71599	1.80334
2.71457	1.88376
2.71315	1.86276
2.71173	1.79332
2.71032	1.79426
2.7089	1.90893
2.70748	2.0719
2.70607	2.10967
2.70466	2.20708
2.70325	2.19563
2.70184	2.03063
2.70043	2.20746
2.69903	2.538
2.69762	2.61143
2.69622	2.58951
2.69482	2.63329
2.69342	2.67626
2.69202	2.80267
2.69062	2.87991
2.68923	2.90703
2.68783	3.01881
2.68644	3.16945
2.68505	3.13584
2.68366	3.17242
2.68227	3.25543
2.68089	3.29876
2.6795	3.33872
2.67812	3.39924
2.67673	3.59052
2.67535	3.77545
2.67397	3.91115
2.6726	3.97512
2.67122	3.92812
2.66984	3.94289
2.66847	4.13604
2.6671	4.2557
2.66572	4.25385
2.66435	4.35628
2.66299	4.55115
2.66162	4.60212
2.66025	4.55136
2.65889	4.51002
2.65753	4.60959
2.65616	4.84682
2.65481	5.08453
2.65345	5.19705
2.65209	5.18698
2.65073	5.10108
2.64938	5.06041
2.64803	5.17928
2.64667	5.28308
2.64532	5.40608
2.64397	5.59723
2.64263	5.61246
2.64128	5.52928
2.63994	5.62175
2.63859	5.74983
2.63725	5.87567
2.63591	5.91591
2.63457	5.87713
2.63323	5.9443
2.6319	5.86803
2.63056	5.65143
2.62923	5.92481
2.62789	6.13777
2.62656	6.21133
2.62523	6.22888
2.6239	6.29431
2.62258	6.39548
2.62125	6.35846
2.61993	6.2761
2.6186	6.27325
2.61728	6.3432
2.61596	6.51269
2.61464	6.72889
2.61332	6.77045
2.61201	6.84008
2.61069	6.82421
2.60938	6.89538
2.60807	6.96406
2.60675	6.91772
2.60544	6.8461
2.60414	6.94147
2.60283	7.07185
2.60152	7.16674
2.60022	7.23884
2.59891	7.20421
2.59761	7.12669
2.59631	7.15028
2.59501	7.02102
2.59371	7.04868
2.59242	7.41298
2.59112	7.54507
2.58983	7.35002
2.58853	7.31422
2.58724	7.41822
2.58595	7.57357
2.58466	7.52243
2.58338	7.48267
2.58209	7.64491
2.5808	7.71694
2.57952	7.82969
2.57824	7.85451
2.57695	7.82192
2.57567	7.80853
2.5744	7.91684
2.57312	7.96021
2.57184	7.85994
2.57057	7.69558
2.56929	7.87588
2.56802	8.19469
2.56675	8.26607
2.56548	8.23147
2.56421	8.13685
2.56294	8.13808
2.56168	8.21615
2.56041	8.26837
2.55915	8.34449
2.55789	8.44446
2.55662	8.60155
2.55536	8.6696
2.5541	8.61587
2.55285	8.55765
2.55159	8.57821
2.55034	8.65014
2.54908	8.6624
2.54783	8.76182
2.54658	8.90714
2.54533	8.89664
2.54408	8.91212
2.54283	8.90674
2.54159	8.95539
2.54034	8.90787
2.5391	8.97584
2.53785	9.20233
2.53661	9.39732
2.53537	9.6168
2.53413	9.72318
2.53289	9.55525
2.53166	9.51265
2.53042	9.63664
2.52919	9.70343
2.52795	9.67391
2.52672	9.76257
2.52549	9.95881
2.52426	10.0939
2.52303	10.0841
2.52181	10.1016
2.52058	10.1378
2.51936	10.1904
2.51813	10.2273
2.51691	10.3306
2.51569	10.4167
2.51447	10.4198
2.51325	10.313
2.51203	10.4052
2.51082	10.6751
2.5096	10.7777
2.50839	10.7739
2.50717	10.6957
2.50596	10.8906
2.50475	11.152
2.50354	11.2504
2.50233	11.2133
2.50113	11.1466
2.49992	11.2448
2.49872	11.4086
2.49751	11.4934
2.49631	11.5815
2.49511	11.515
2.49391	11.4762
2.49271	11.671
2.49151	11.9568
2.49031	11.9585
2.48912	11.8644
2.48792	11.8473
2.48673	11.8995
2.48554	12.0742
2.48435	12.34
2.48316	12.1546
2.48197	12.0452
2.48078	12.3014
2.4796	12.3036
2.47841	12.3654
2.47723	12.4262
2.47604	12.417
2.47486	12.5614
2.47368	12.6182
2.4725	12.6123
2.47132	12.702
2.47014	12.6572
2.46897	12.6799
2.46779	12.8976
2.46662	13.0231
2.46545	13.1173
2.46427	13.1494
2.4631	13.0423
2.46193	13.0208
2.46077	13.2649
2.4596	13.3998
2.45843	13.3623
2.45727	13.3476
2.4561	13.5085
2.45494	13.6596
2.45378	13.6925
2.45262	13.5834
2.45146	13.5057
2.4503	13.6661
2.44914	13.8816
2.44799	13.7957
2.44683	13.8076
2.44568	14.0922
2.44452	14.1966
2.44337	14.3761
2.44222	14.5211
2.44107	14.5044
2.43992	14.3949
2.43877	14.3542
2.43763	14.5408
2.43648	14.6724
2.43534	14.8445
2.43419	15.098
2.43305	15.2267
2.43191	15.2906
2.43077	15.2909
2.42963	15.3134
2.42849	15.4923
2.42736	15.6055
2.42622	15.7754
2.42509	16.0485
2.42395	16.0762
2.42282	16.2042
2.42169	16.3925
2.42056	16.5293
2.41943	16.7459
2.4183	16.867
2.41717	16.9865
2.41605	17.1853
2.41492	17.4788
2.4138	17.7397
2.41267	17.9428
2.41155	18.0969
2.41043	18.2674
2.40931	18.3506
2.40819	18.4894
2.40707	18.7448
2.40595	19.1917
2.40484	19.487
2.40372	19.5616
2.40261	19.8494
2.4015	20.102
2.40039	20.2783
2.39928	20.556
2.39817	20.6796
2.39706	20.9479
2.39595	21.5155
2.39484	21.9145
2.39374	21.9593
2.39263	22.0911
2.39153	22.4363
2.39043	22.6784
2.38932	23.0237
2.38822	23.4376
2.38712	23.6934
2.38603	23.9016
2.38493	24.1624
2.38383	24.5887
2.38274	24.9814
2.38164	25.2755
2.38055	25.4881
2.37946	25.7982
2.37836	26.1748
2.37727	26.5228
2.37618	26.8581
2.3751	27.1649
2.37401	27.458
2.37292	27.8474
2.37184	28.3104
2.37075	28.6203
2.36967	28.8488
2.36859	28.9775
2.3675	29.3063
2.36642	29.8646
2.36534	30.2064
2.36427	30.4802
2.36319	30.8749
2.36211	31.1235
2.36104	31.3621
2.35996	31.6658
2.35889	32.043
2.35781	32.4795
2.35674	32.8812
2.35567	33.1444
2.3546	33.3091
2.35353	33.556
2.35247	33.9655
2.3514	34.2713
2.35033	34.466
2.34927	34.7495
2.3482	35.0787
2.34714	35.2886
2.34608	35.5301
2.34502	35.8755
2.34396	36.0957
2.3429	36.4061
2.34184	36.6203
2.34078	36.7759
2.33973	37.025
2.33867	37.3459
2.33762	37.8344
2.33656	38.0932
2.33551	38.2217
2.33446	38.4909
2.33341	38.7638
2.33236	39.038
2.33131	39.1358
2.33026	39.1921
2.32922	39.3967
2.32817	39.6952
2.32712	40.0824
2.32608	40.2365
2.32504	40.3473
2.324	40.6155
2.32295	40.7733
2.32191	41.0398
2.32087	41.1869
2.31984	41.2068
2.3188	41.4631
2.31776	41.6839
2.31673	41.8557
2.31569	42.1653
2.31466	42.3381
2.31362	42.444
2.31259	42.5777
2.31156	42.7109
2.31053	42.8923
2.3095	43.0077
2.30847	43.2682
2.30745	43.534
2.30642	43.6437
2.3054	43.6899
2.30437	43.7572
2.30335	44.0078
2.30232	44.2084
2.3013	44.475
2.30028	44.605
2.29926	44.524
2.29824	44.5377
2.29722	44.6483
2.29621	44.8115
2.29519	44.9925
2.29417	45.2018
2.29316	45.3742
2.29215	45.5378
2.29113	45.5654
2.29012	45.6259
2.28911	45.6975
2.2881	45.8925
2.28709	46.0175
2.28608	46.0021
2.28507	46.0853
2.28407	46.3021
2.28306	46.4461
2.28206	46.5415
2.28105	46.6218
2.28005	46.7154
2.27905	46.8618
2.27805	46.922
2.27705	46.9399
2.27605	46.9913
2.27505	47.1785
2.27405	47.2562
2.27305	47.3658
2.27206	47.4556
2.27106	47.6291
2.27007	47.632
2.26907	47.5537
2.26808	47.6207
2.26709	47.76
2.2661	47.7994
2.26511	47.9359
2.26412	48.1428
2.26313	48.3028
2.26214	48.3549
2.26116	48.3037
2.26017	48.2945
2.25919	48.3017
2.2582	48.4458
2.25722	48.5792
2.25624	48.5488
2.25526	48.6467
2.25428	48.7084
2.2533	48.6232
2.25232	48.6636
2.25134	48.7513
2.25036	48.777
2.24939	48.7797
2.24841	48.8257
2.24744	48.8601
2.24646	48.973
2.24549	49.1065
2.24452	49.061
2.24355	49.0678
2.24257	49.0045
2.24161	49.0522
2.24064	49.1559
2.23967	49.197
2.2387	49.2793
2.23774	49.2655
2.23677	49.4628
2.23581	49.5355
2.23484	49.4952
2.23388	49.5111
2.23292	49.3814
2.23196	49.2808
2.231	49.2888
2.23004	49.4351
2.22908	49.5113
2.22812	49.3699
2.22716	49.3765
2.22621	49.4821
2.22525	49.5355
2.2243	49.5468
2.22334	49.597
2.22239	49.8107
2.22144	49.8121
2.22049	49.6813
2.21953	49.5147
2.21859	49.6186
2.21764	49.7746
2.21669	49.6697
2.21574	49.5786
2.21479	49.6878
2.21385	49.687
2.2129	49.6754
2.21196	49.6925
2.21102	49.5986
2.21007	49.5699
2.20913	49.6979
2.20819	49.7494
2.20725	49.6402
2.20631	49.5676
2.20537	49.5251
2.20444	49.6842
2.2035	49.7926
2.20256	49.8109
2.20163	49.7241
2.20069	49.5935
2.19976	49.5873
2.19883	49.6276
2.19789	49.6329
2.19696	49.6107
2.19603	49.7394
2.1951	49.8153
2.19417	49.8518
2.19325	49.7591
2.19232	49.6613
2.19139	49.6739
2.19047	49.6224
2.18954	49.7434
2.18862	49.87
2.18769	49.8094
2.18677	49.6914
2.18585	49.5968
2.18493	49.5013
2.18401	49.4832
2.18309	49.7028
2.18217	49.7555
2.18125	49.6357
2.18033	49.5764
2.17942	49.5741
2.1785	49.5956
2.17759	49.5982
2.17667	49.6428
2.17576	49.6194
2.17485	49.5211
2.17393	49.3969
2.17302	49.499
2.17211	49.7207
2.1712	49.6718
2.17029	49.6493
2.16939	49.5264
2.16848	49.2649
2.16757	49.3582
2.16667	49.6099
2.16576	49.6363
2.16486	49.5515
2.16395	49.5214
2.16305	49.4468
2.16215	49.2949
2.16125	49.2109
2.16035	49.2988
2.15945	49.265
2.15855	49.0404
2.15765	49.0791
2.15675	49.3426
2.15586	49.3833
2.15496	49.3921
2.15406	49.5813
2.15317	49.5391
2.15228	49.3457
2.15138	49.0758
2.15049	49.1195
2.1496	49.1181
2.14871	48.8867
2.14782	48.837
2.14693	49.0237
2.14604	49.0541
2.14515	48.9093
2.14427	48.8645
2.14338	48.8291
2.14249	48.7407
2.14161	48.738
2.14072	48.6593
2.13984	48.6562
2.13896	48.6497
2.13808	48.6178
2.13719	48.5876
2.13631	48.3668
2.13543	48.2806
2.13455	48.2095
2.13368	48.2243
2.1328	48.3804
2.13192	48.4924
2.13105	48.3268
2.13017	48.1903
2.1293	48.1516
2.12842	48.1002
2.12755	48.0125
2.12668	47.8551
2.1258	47.8663
2.12493	47.8959
2.12406	47.8949
2.12319	47.8429
2.12232	47.7278
2.12145	47.7374
2.12059	47.7888
2.11972	47.7512
2.11885	47.5453
2.11799	47.2769
2.11712	47.288
2.11626	47.419
2.1154	47.3218
2.11453	47.3057
2.11367	47.4352
2.11281	47.4352
2.11195	47.3678
2.11109	47.2857
2.11023	47.2182
2.10937	46.9603
2.10851	46.8537
2.10766	47.0353
2.1068	46.9678
2.10594	46.7914
2.10509	46.7043
2.10423	46.4463
2.10338	46.2457
2.10253	46.4938
2.10168	46.5846
2.10082	46.4023
2.09997	46.0771
2.09912	46.0532
2.09827	46.1409
2.09742	46.0999
2.09658	46.079
2.09573	45.8774
2.09488	45.8359
2.09404	45.9117
2.09319	45.9158
2.09235	45.6943
2.0915	45.7054
2.09066	45.7807
2.08982	45.7982
2.08897	45.3676
2.08813	45.171
2.08729	45.4706
2.08645	45.8368
2.08561	45.7058
2.08477	45.2951
2.08394	44.9856
2.0831	44.9218
2.08226	44.9121
2.08143	44.7264
2.08059	45.0071
2.07976	44.9902
2.07892	44.7993
2.07809	44.8955
2.07726	44.4792
2.07643	44.2353
2.07559	44.4732
2.07476	44.1888
2.07393	43.9306
2.0731	44.2869
2.07228	44.6255
2.07145	44.7673
2.07062	44.7304
2.06979	44.1428
2.06897	43.9911
2.06814	44.3084
2.06732	44.2035
2.06649	44.1811
2.06567	44.4339
2.06485	44.3636
2.06403	44.013
2.0632	43.7607
2.06238	43.8351
2.06156	43.9798
2.06074	44.0382
2.05993	43.6824
2.05911	43.4733
2.05829	43.5106
2.05747	43.3803
2.05666	43.1592
2.05584	42.8649
2.05503	42.8816
2.05421	43.027
2.0534	43.1127
2.05259	42.9979
2.05177	42.8324
2.05096	42.8234
2.05015	42.6538
2.04934	42.6476
2.04853	42.6045
2.04772	42.5088
2.04691	42.2395
2.04611	41.9182
2.0453	41.7186
2.04449	41.5101
2.04369	41.4727
2.04288	41.5639
2.04208	41.5032
2.04127	41.1197
2.04047	40.8932
2.03967	40.6888
2.03886	40.6214
2.03806	40.8947
2.03726	40.5724
2.03646	40.2074
2.03566	39.8872
2.03486	39.4974
2.03407	39.4144
2.03327	39.6033
2.03247	40.0158
2.03167	39.7124
2.03088	39.0193
2.03008	38.9507
2.02929	39.0491
2.0285	38.8146
2.0277	38.1566
2.02691	37.7949
2.02612	37.8273
2.02533	38.0112
2.02453	37.9371
2.02374	37.5272
2.02295	37.2037
2.02217	36.9344
2.02138	36.6471
2.02059	36.5082
2.0198	36.4954
2.01902	36.3106
2.01823	35.9516
2.01744	35.5797
2.01666	35.19
2.01588	35.1287
2.01509	35.0436
2.01431	34.7514
2.01353	34.6169
2.01275	34.468
2.01196	34.1498
2.01118	33.9083
2.0104	33.7536
2.00963	33.4827
2.00885	33.0645
2.00807	32.6815
2.00729	32.4766
2.00651	32.4369
2.00574	32.3146
2.00496	31.9439
2.00419	31.7028
2.00341	31.688
2.00264	31.6418
2.00187	31.4024
2.00109	31.0864
2.00032	30.8672
