Name: Natrolite Na_2Al_2Si_3O_10.2H_2O
Type: Mineral
Class: Silicates
Subclass: Tectosilicates
Particle Size: 125-500um
Sample No.: TS-8A
Owner: JPL
Wavelength range: IR
Origin: India, Maharashtra, Poona
Collected by Ward's
Description: 





Measurement: Hemispherical reflectance
First Column: X
Second Column: Y
X Units:  Wavelength (micrometers)
Y Units:  Reflectance (percent)
First X Value: 15.3853
Last X Value: 2.00032
Number of X Values: 2256
Additional information: ts08aa.txt
 
15.3853	3.10693
15.3397	3.12332
15.2945	3.36298
15.2495	3.46206
15.2048	3.1905
15.1603	3.07969
15.1161	3.07663
15.0722	2.67414
15.0285	2.38497
14.9851	2.39763
14.9419	2.32931
14.8989	2.25747
14.8563	2.29954
14.8138	2.39487
14.7716	2.55191
14.7296	2.50141
14.6879	2.38248
14.6464	2.26973
14.6052	2.01739
14.5641	1.85721
14.5233	1.85827
14.4828	1.77066
14.4424	1.5408
14.4023	1.58877
14.3624	1.54047
14.3227	1.55957
14.2833	1.45774
14.244	1.28319
14.205	1.24738
14.1662	1.10793
14.1276	0.717235
14.0892	0.698905
14.051	0.99812
14.0131	1.17141
13.9753	1.08242
13.9377	1.03841
13.9004	1.02559
13.8632	1.18833
13.8262	1.21518
13.7895	1.15371
13.7529	1.02161
13.7165	0.76637
13.6803	0.717491
13.6443	0.869616
13.6085	1.04385
13.5729	0.986444
13.5374	1.02215
13.5022	1.03691
13.4671	1.01838
13.4322	1.16264
13.3975	1.29235
13.363	1.33777
13.3286	1.39473
13.2944	1.35843
13.2604	1.3568
13.2266	1.31777
13.193	1.41147
13.1595	1.52094
13.1262	1.46765
13.093	1.52668
13.06	1.86161
13.0272	1.88889
12.9946	1.6628
12.9621	1.7316
12.9298	1.91695
12.8976	1.9016
12.8656	1.80855
12.8337	1.82373
12.8021	1.95737
12.7705	2.08711
12.7391	2.07181
12.7079	2.05046
12.6769	2.17267
12.6459	2.35307
12.6152	2.37531
12.5845	2.33029
12.5541	2.22875
12.5238	2.21871
12.4936	2.16174
12.4635	2.2031
12.4337	2.38386
12.4039	2.49988
12.3743	2.59075
12.3448	2.60914
12.3155	2.68105
12.2863	2.77711
12.2573	2.81688
12.2284	2.81049
12.1996	2.65299
12.171	2.65906
12.1425	2.75831
12.1141	2.81235
12.0859	2.97638
12.0578	2.98787
12.0298	2.87025
12.0019	2.89566
11.9742	3.08751
11.9466	3.18705
11.9192	3.11575
11.8918	3.0627
11.8646	3.2094
11.8375	3.3714
11.8106	3.37389
11.7837	3.39108
11.757	3.60993
11.7304	3.66095
11.7039	3.58914
11.6776	3.68274
11.6513	3.73492
11.6252	3.69051
11.5992	3.77781
11.5733	3.92868
11.5475	3.9124
11.5219	3.95679
11.4963	4.04781
11.4709	4.17428
11.4455	4.20661
11.4203	4.14611
11.3952	4.19708
11.3702	4.25715
11.3454	4.33712
11.3206	4.53972
11.2959	4.61048
11.2714	4.63084
11.2469	4.64409
11.2226	4.74888
11.1983	4.90747
11.1742	4.92104
11.1502	4.97483
11.1263	5.08074
11.1024	5.23786
11.0787	5.45443
11.0551	5.43749
11.0316	5.46806
11.0081	5.60162
10.9848	5.75762
10.9616	6.07321
10.9385	6.36852
10.9154	6.37532
10.8925	6.45509
10.8697	6.699
10.8469	6.91468
10.8243	7.04427
10.8017	7.17363
10.7793	7.28153
10.7569	7.54087
10.7346	7.90714
10.7125	8.12909
10.6904	8.44431
10.6684	8.88651
10.6465	9.23537
10.6247	9.64181
10.6029	10.0896
10.5813	10.5974
10.5597	11.0999
10.5383	11.7159
10.5169	12.3979
10.4956	13.1195
10.4744	14.2213
10.4533	15.5165
10.4323	16.8977
10.4113	18.6484
10.3904	20.7362
10.3697	22.5018
10.349	23.1599
10.3284	22.7305
10.3078	22.1645
10.2874	22.0135
10.267	21.6732
10.2467	21.2977
10.2265	21.4892
10.2064	22.4179
10.1863	23.8697
10.1663	25.5588
10.1464	27.3219
10.1266	29.0733
10.1069	30.5053
10.0872	31.1386
10.0676	30.6102
10.0481	29.4704
10.0287	29.0896
10.0093	29.9459
9.99005	30.9284
9.97084	30.9817
9.95169	30.2674
9.93263	29.2125
9.91364	28.4122
9.89472	27.6713
9.87587	26.6348
9.8571	24.9725
9.83839	22.481
9.81976	19.2816
9.80119	15.9667
9.78271	12.5542
9.76428	9.01444
9.74592	5.78884
9.72764	3.29146
9.70943	2.06189
9.69128	1.88705
9.6732	2.42721
9.65518	3.73458
9.63724	5.54028
9.61935	7.52489
9.60155	9.59681
9.5838	11.5827
9.56611	13.167
9.5485	14.4245
9.53094	15.4849
9.51345	16.4355
9.49604	17.34
9.47867	18.0979
9.46137	18.8295
9.44414	19.4119
9.42697	19.596
9.40986	19.0496
9.39281	17.9253
9.37583	16.4069
9.35891	14.7013
9.34204	12.9752
9.32524	11.5649
9.3085	10.9627
9.29182	11.048
9.27519	11.7642
9.25863	12.9424
9.24213	14.2604
9.22568	15.8034
9.2093	17.3877
9.19297	18.7099
9.17669	19.7061
9.16048	20.2285
9.14433	20.2526
9.12823	19.9074
9.11218	19.3903
9.0962	18.9762
9.08027	18.5346
9.06439	18.2145
9.04858	18.2302
9.03281	18.5077
9.0171	18.9888
9.00145	19.5854
8.98585	19.9167
8.9703	19.6388
8.9548	19.1106
8.93937	18.2132
8.92398	16.7929
8.90865	15.2801
8.89337	13.9735
8.87814	12.7025
8.86296	11.3878
8.84784	10.2244
8.83277	9.28776
8.81774	8.42517
8.80277	7.34475
8.78786	6.3643
8.77298	5.56817
8.75816	4.95283
8.7434	4.34557
8.72868	3.71119
8.714	3.19878
8.69938	2.75955
8.68481	2.34086
8.67029	2.01892
8.65581	1.70739
8.64139	1.39826
8.62701	1.25665
8.61268	1.08901
8.5984	0.802035
8.58416	0.716481
8.56997	0.697184
8.55583	0.542393
8.54174	0.415566
8.52769	0.480398
8.51368	0.412371
8.49973	0.416628
8.48582	0.351841
8.47195	0.187648
8.45813	0.0146564
8.44436	0.0205173
8.43062	0.145429
8.41693	0.193393
8.4033	0.155431
8.3897	0.159282
8.37614	0.179534
8.36264	0.224984
8.34917	0.22337
8.33574	0.0910649
8.32236	0.0615597
8.30903	-0.0148884
8.29573	-0.0411057
8.28248	-0.076723
8.26927	-0.0476969
8.2561	0.135399
8.24298	0.0889931
8.2299	-0.0895767
8.21685	-0.0734482
8.20385	0.156152
8.19089	0.385427
8.17797	0.312202
8.16509	0.0271165
8.15225	0.0684138
8.13946	0.104568
8.1267	0.0429036
8.11398	0.053176
8.10131	0.0632457
8.08867	0.0586592
8.07606	0.159207
8.0635	0.205855
8.05099	0.0719655
8.0385	0.0560179
8.02606	0.0756985
8.01366	0.0393755
8.00129	0.0227261
7.98896	0.126688
7.97667	0.252393
7.96442	0.228502
7.9522	0.18001
7.94002	0.20913
7.92788	0.259162
7.91578	0.293147
7.90371	0.240309
7.89168	0.272334
7.87969	0.305993
7.86773	0.202934
7.85581	0.143792
7.84392	0.248139
7.83207	0.233938
7.82026	0.167355
7.80849	0.184436
7.79674	0.223346
7.78503	0.276003
7.77337	0.256707
7.76173	0.263601
7.75012	0.310006
7.73856	0.318671
7.72703	0.25502
7.71553	0.226235
7.70406	0.276964
7.69263	0.331629
7.68123	0.326084
7.66987	0.330975
7.65855	0.311356
7.64725	0.278084
7.63598	0.302082
7.62475	0.329591
7.61356	0.272332
7.60239	0.311819
7.59126	0.438319
7.58017	0.436491
7.5691	0.439942
7.55806	0.480299
7.54707	0.447738
7.5361	0.4427
7.52516	0.498474
7.51425	0.482612
7.50338	0.434317
7.49253	0.444749
7.48172	0.464669
7.47094	0.432686
7.46019	0.429288
7.44947	0.404013
7.43879	0.436604
7.42813	0.474557
7.4175	0.488192
7.4069	0.570275
7.39634	0.630375
7.3858	0.56036
7.37529	0.437157
7.36482	0.458334
7.35437	0.561366
7.34396	0.589651
7.33357	0.563911
7.32321	0.599076
7.31288	0.622148
7.30258	0.650756
7.29231	0.722915
7.28207	0.6559
7.27185	0.51664
7.26167	0.427367
7.25152	0.499453
7.24139	0.591148
7.23129	0.619223
7.22122	0.660623
7.21117	0.629559
7.20116	0.672952
7.19117	0.700986
7.18121	0.71091
7.17128	0.64204
7.16137	0.516865
7.1515	0.536376
7.14164	0.661208
7.13182	0.695401
7.12203	0.719685
7.11225	0.714474
7.10251	0.70937
7.0928	0.731871
7.08311	0.748667
7.07344	0.783559
7.06381	0.729389
7.0542	0.624335
7.04461	0.642166
7.03506	0.731399
7.02552	0.735603
7.01601	0.676088
7.00653	0.647924
6.99708	0.711119
6.98765	0.832186
6.97824	0.901292
6.96886	0.798858
6.95951	0.771941
6.95018	0.843186
6.94087	0.834063
6.9316	0.80134
6.92234	0.737562
6.91311	0.794276
6.90391	0.82383
6.89473	0.855786
6.88557	0.87681
6.87644	0.795568
6.86733	0.806084
6.85824	0.882925
6.84918	0.871082
6.84015	0.844638
6.83114	0.879683
6.82215	0.819168
6.81319	0.787796
6.80424	0.761215
6.79532	0.830613
6.78643	0.983711
6.77756	0.993799
6.76871	1.00746
6.75989	1.02674
6.75109	1.02226
6.74231	1.01411
6.73355	1.06169
6.72482	1.09436
6.71611	1.10612
6.70742	1.01839
6.69875	0.9034
6.69011	0.914711
6.68149	0.992029
6.67289	0.923152
6.66431	0.921905
6.65576	0.967433
6.64722	1.03676
6.63871	1.14159
6.63022	1.19215
6.62175	1.15794
6.61331	1.13226
6.60488	1.05435
6.59648	1.03609
6.5881	1.06762
6.57974	1.05667
6.5714	1.11693
6.56308	1.15843
6.55478	1.12735
6.54651	1.08094
6.53825	1.09279
6.53001	1.0922
6.5218	1.06185
6.51361	1.07652
6.50544	1.09165
6.49729	1.11005
6.48915	1.15521
6.48104	1.18987
6.47295	1.16478
6.46488	1.0839
6.45683	1.04338
6.4488	1.04667
6.44079	1.13368
6.4328	1.18225
6.42482	1.20173
6.41687	1.27508
6.40894	1.28319
6.40103	1.17974
6.39314	1.0578
6.38526	1.07652
6.37741	1.09361
6.36957	1.11498
6.36176	1.1648
6.35396	1.20726
6.34618	1.24715
6.33843	1.10798
6.33069	1.06654
6.32297	1.16249
6.31527	1.17809
6.30758	1.14439
6.29992	1.06438
6.29227	1.03097
6.28465	1.0136
6.27704	1.02726
6.26945	1.05387
6.26188	1.14994
6.25432	1.17339
6.24679	1.16187
6.23927	1.18454
6.23177	1.11122
6.22429	1.05603
6.21683	1.06124
6.20938	1.10183
6.20195	1.11436
6.19454	1.10329
6.18715	1.10548
6.17978	1.14718
6.17242	1.12212
6.16508	1.0543
6.15776	1.00136
6.15045	1.01649
6.14317	0.99785
6.1359	0.958296
6.12864	0.972974
6.12141	1.02512
6.11419	1.11176
6.10699	1.02567
6.0998	0.997623
6.09263	0.965934
6.08549	0.923677
6.07835	1.04355
6.07123	1.15958
6.06413	1.10132
6.05705	0.991507
6.04998	0.978315
6.04293	1.01718
6.0359	0.980062
6.02888	1.02556
6.02187	1.12291
6.01489	1.09735
6.00792	1.10382
6.00096	1.16861
5.99403	1.24401
5.98711	1.29681
5.9802	1.2695
5.97331	1.21463
5.96644	1.29324
5.95958	1.35193
5.95274	1.27868
5.94591	1.2168
5.9391	1.29274
5.9323	1.31642
5.92552	1.28763
5.91876	1.27669
5.91201	1.26608
5.90528	1.28076
5.89856	1.28045
5.89186	1.27341
5.88517	1.33279
5.8785	1.36128
5.87184	1.34047
5.8652	1.32937
5.85857	1.28136
5.85196	1.26849
5.84536	1.27349
5.83878	1.34617
5.83221	1.37213
5.82566	1.39661
5.81912	1.3785
5.81259	1.26065
5.80608	1.24749
5.79959	1.34696
5.79311	1.37212
5.78665	1.37307
5.78019	1.36742
5.77376	1.37767
5.76734	1.40037
5.76093	1.37199
5.75453	1.38069
5.74815	1.42182
5.74179	1.38907
5.73543	1.35107
5.7291	1.35596
5.72277	1.43129
5.71646	1.4329
5.71017	1.47715
5.70389	1.47157
5.69762	1.47569
5.69136	1.50192
5.68513	1.48587
5.6789	1.48769
5.67268	1.5541
5.66648	1.59264
5.6603	1.63652
5.65413	1.61299
5.64797	1.57129
5.64182	1.64822
5.63569	1.72718
5.62957	1.76646
5.62347	1.73981
5.61737	1.70879
5.61129	1.66585
5.60522	1.6518
5.59917	1.70892
5.59313	1.81341
5.5871	1.80279
5.58109	1.79248
5.57509	1.78793
5.5691	1.80764
5.56312	1.88834
5.55716	1.90557
5.55121	1.84893
5.54528	1.83202
5.53935	1.86478
5.53344	1.90956
5.52754	1.88959
5.52166	1.83188
5.51578	1.84233
5.50992	1.9035
5.50407	1.91559
5.49823	1.93466
5.49241	1.92786
5.4866	1.90035
5.4808	1.88643
5.47501	1.87011
5.46923	1.89976
5.46347	1.92943
5.45772	2.03555
5.45198	2.14269
5.44625	2.16823
5.44054	2.13764
5.43484	2.13507
5.42914	2.13871
5.42347	2.19273
5.4178	2.25783
5.41214	2.31893
5.4065	2.32497
5.40087	2.35748
5.39525	2.47707
5.38964	2.45865
5.38404	2.46429
5.37846	2.59336
5.37288	2.72316
5.36732	2.69679
5.36177	2.63642
5.35623	2.67892
5.35071	2.84646
5.34519	2.85609
5.33968	2.81964
5.33419	2.96286
5.32871	3.03701
5.32324	3.03988
5.31778	3.04493
5.31233	3.17876
5.30689	3.29296
5.30147	3.41469
5.29605	3.58509
5.29065	3.64722
5.28525	3.69887
5.27987	3.77583
5.2745	3.82811
5.26914	3.90707
5.26379	4.02662
5.25845	4.12562
5.25312	4.15937
5.24781	4.1527
5.2425	4.15355
5.23721	4.07561
5.23192	3.95283
5.22665	3.91016
5.22138	3.8902
5.21613	3.80825
5.21089	3.73419
5.20566	3.7449
5.20044	3.70961
5.19522	3.67897
5.19002	3.69795
5.18483	3.71519
5.17965	3.72509
5.17448	3.65966
5.16933	3.64268
5.16418	3.67377
5.15904	3.74498
5.15391	3.80714
5.14879	3.76607
5.14368	3.62042
5.13859	3.50132
5.1335	3.457
5.12842	3.33319
5.12335	3.2809
5.1183	3.28373
5.11325	3.24251
5.10821	3.13038
5.10318	3.12791
5.09817	3.17757
5.09316	3.0431
5.08816	3.04945
5.08317	3.10879
5.07819	2.95339
5.07322	2.89608
5.06826	2.87701
5.06331	2.79926
5.05837	2.74026
5.05344	2.73024
5.04852	2.73232
5.04361	2.71525
5.03871	2.67985
5.03382	2.71418
5.02894	2.71013
5.02406	2.66639
5.0192	2.73203
5.01435	2.88636
5.0095	3.00662
5.00467	3.12653
4.99984	3.23113
4.99502	3.3069
4.99021	3.37039
4.98542	3.37261
4.98063	3.41947
4.97585	3.48891
4.97108	3.51058
4.96632	3.54294
4.96156	3.55293
4.95682	3.62708
4.95209	3.73261
4.94736	3.7175
4.94264	3.70072
4.93794	3.6615
4.93324	3.6304
4.92855	3.62162
4.92387	3.5306
4.9192	3.42435
4.91453	3.36892
4.90988	3.28187
4.90524	3.27657
4.9006	3.23126
4.89597	3.19421
4.89135	3.10069
4.88674	2.96081
4.88214	2.9232
4.87755	2.94097
4.87296	2.96681
4.86839	2.8759
4.86382	2.8169
4.85926	2.79058
4.85471	2.86262
4.85017	2.83667
4.84564	2.71058
4.84111	2.70469
4.8366	2.74714
4.83209	2.70943
4.82759	2.65329
4.8231	2.57689
4.81862	2.48866
4.81415	2.5615
4.80968	2.57741
4.80522	2.44395
4.80077	2.38239
4.79633	2.27907
4.7919	2.24212
4.78747	2.24347
4.78306	2.2763
4.77865	2.23766
4.77425	2.10421
4.76986	2.00118
4.76547	1.97095
4.7611	1.92963
4.75673	1.90261
4.75237	1.87068
4.74802	1.84031
4.74367	1.79993
4.73934	1.71348
4.73501	1.64215
4.73069	1.63807
4.72638	1.63735
4.72207	1.6494
4.71777	1.60725
4.71348	1.54254
4.7092	1.51462
4.70493	1.47293
4.70066	1.49699
4.69641	1.46949
4.69216	1.44417
4.68791	1.41366
4.68368	1.41797
4.67945	1.47826
4.67523	1.45978
4.67102	1.48917
4.66682	1.43226
4.66262	1.36149
4.65843	1.4451
4.65425	1.45759
4.65007	1.41751
4.64591	1.49773
4.64175	1.45462
4.6376	1.36393
4.63345	1.38093
4.62932	1.47237
4.62519	1.53016
4.62106	1.66693
4.61695	1.72891
4.61284	1.71745
4.60874	1.82549
4.60465	1.91435
4.60056	1.89734
4.59648	1.96314
4.59241	2.06804
4.58835	2.1377
4.58429	2.20177
4.58024	2.23709
4.5762	2.32086
4.57216	2.36076
4.56814	2.35519
4.56411	2.34105
4.5601	2.40079
4.55609	2.48049
4.55209	2.56697
4.5481	2.59396
4.54411	2.57125
4.54013	2.63029
4.53616	2.77315
4.5322	2.8061
4.52824	2.80528
4.52429	2.91627
4.52034	3.07544
4.51641	3.06937
4.51247	3.04209
4.50855	3.11775
4.50463	3.2307
4.50072	3.33804
4.49682	3.41066
4.49292	3.49606
4.48903	3.56532
4.48515	3.70553
4.48127	3.80265
4.4774	3.96901
4.47354	4.11808
4.46968	4.28128
4.46584	4.48003
4.46199	4.63995
4.45815	4.77806
4.45432	4.91123
4.4505	5.05403
4.44668	5.25951
4.44287	5.52156
4.43907	5.65036
4.43527	5.75476
4.43148	5.91003
4.4277	6.12436
4.42392	6.33295
4.42015	6.54706
4.41638	6.64306
4.41262	6.73456
4.40887	6.83246
4.40513	6.9756
4.40139	7.08684
4.39765	7.20448
4.39393	7.34519
4.39021	7.33201
4.38649	7.30977
4.38278	7.35649
4.37908	7.44338
4.37539	7.52222
4.3717	7.61871
4.36801	7.76977
4.36434	7.89884
4.36067	7.97838
4.357	7.99738
4.35335	8.00452
4.34969	8.11952
4.34605	8.26846
4.34241	8.31972
4.33877	8.25318
4.33514	8.21688
4.33152	8.27867
4.32791	8.39914
4.3243	8.40675
4.32069	8.41924
4.3171	8.46691
4.31351	8.56647
4.30992	8.63638
4.30634	8.58989
4.30277	8.59657
4.2992	8.66114
4.29564	8.71855
4.29208	8.81739
4.28853	8.93816
4.28499	9.08344
4.28145	9.18465
4.27792	9.18234
4.27439	9.30223
4.27087	9.52396
4.26735	9.67197
4.26384	9.83809
4.26034	10.0729
4.25684	10.3203
4.25335	10.3563
4.24986	10.3906
4.24638	10.5489
4.24291	10.6385
4.23944	10.6506
4.23598	10.7592
4.23252	11.0224
4.22906	11.1608
4.22562	11.2093
4.22218	11.3672
4.21874	11.6064
4.21531	11.7601
4.21189	11.9105
4.20847	12.1599
4.20506	12.3232
4.20165	12.512
4.19825	12.5996
4.19485	12.6338
4.19146	12.7744
4.18807	12.8622
4.18469	12.9968
4.18132	13.1952
4.17795	13.3543
4.17458	13.5488
4.17123	13.8256
4.16787	14.0732
4.16453	14.2888
4.16118	14.5854
4.15785	14.857
4.15451	15.1287
4.15119	15.4928
4.14787	15.9748
4.14455	16.3525
4.14124	16.6387
4.13794	16.8863
4.13464	17.1483
4.13134	17.4184
4.12805	17.6486
4.12477	17.8797
4.12149	18.108
4.11822	18.2763
4.11495	18.4983
4.11168	18.6737
4.10843	18.7982
4.10517	18.9175
4.10192	19.0469
4.09868	19.1902
4.09545	19.3229
4.09221	19.339
4.08899	19.4017
4.08576	19.53
4.08255	19.556
4.07933	19.6772
4.07613	19.7608
4.07292	19.7001
4.06973	19.6295
4.06654	19.5827
4.06335	19.4946
4.06017	19.2678
4.05699	19.0836
4.05382	18.9436
4.05065	18.789
4.04749	18.7597
4.04433	18.8617
4.04118	19.072
4.03803	19.3882
4.03489	19.7235
4.03175	19.9951
4.02862	20.1727
4.02549	20.3559
4.02237	20.5243
4.01925	20.6448
4.01614	20.6904
4.01303	20.7341
4.00993	20.94
4.00683	21.0854
4.00373	21.0948
4.00064	21.1602
3.99756	21.2195
3.99448	21.2158
3.9914	21.3182
3.98833	21.4122
3.98527	21.4222
3.98221	21.3988
3.97915	21.3618
3.9761	21.3876
3.97305	21.4707
3.97001	21.5194
3.96697	21.5708
3.96394	21.5772
3.96091	21.4916
3.95789	21.499
3.95487	21.5269
3.95186	21.4669
3.94885	21.5012
3.94584	21.5241
3.94284	21.4674
3.93984	21.5587
3.93685	21.59
3.93386	21.4881
3.93088	21.4784
3.9279	21.4847
3.92493	21.4673
3.92196	21.4491
3.919	21.3491
3.91604	21.2844
3.91308	21.2424
3.91013	21.1794
3.90718	21.14
3.90424	21.1119
3.9013	21.0361
3.89837	20.93
3.89544	20.8871
3.89252	20.7938
3.8896	20.7821
3.88668	20.6626
3.88377	20.3414
3.88086	20.1724
3.87796	20.1566
3.87506	20.0986
3.87217	19.9563
3.86928	19.8619
3.86639	19.6961
3.86351	19.4366
3.86064	19.2423
3.85776	19.0643
3.8549	18.8569
3.85203	18.6649
3.84917	18.445
3.84631	18.2561
3.84346	17.9559
3.84062	17.5668
3.83777	17.3093
3.83494	17.3072
3.8321	17.4205
3.82927	17.5647
3.82644	17.7534
3.82362	17.9365
3.82081	18.0014
3.81799	17.9106
3.81518	17.815
3.81238	17.7414
3.80958	17.6529
3.80678	17.662
3.80399	17.5958
3.8012	17.5185
3.79841	17.394
3.79563	17.2931
3.79286	17.2951
3.79008	17.2108
3.78731	17.1023
3.78455	17.0125
3.78179	17.0336
3.77903	17.0657
3.77628	16.9597
3.77353	16.9107
3.77079	16.9046
3.76805	16.8825
3.76531	16.78
3.76258	16.6543
3.75985	16.6043
3.75713	16.4331
3.7544	16.3309
3.75169	16.2868
3.74898	16.0896
3.74627	15.8772
3.74356	15.7172
3.74086	15.604
3.73816	15.6278
3.73547	15.5581
3.73278	15.2779
3.7301	15.0516
3.72741	14.9335
3.72474	14.7606
3.72206	14.5924
3.71939	14.4677
3.71673	14.2474
3.71406	14.0653
3.71141	13.9677
3.70875	13.8179
3.7061	13.6961
3.70345	13.5028
3.70081	13.2974
3.69817	13.1827
3.69553	13.0815
3.6929	13.0662
3.69027	13.0041
3.68765	12.8272
3.68503	12.6619
3.68241	12.6227
3.6798	12.5916
3.67719	12.497
3.67458	12.415
3.67198	12.3287
3.66938	12.2341
3.66678	12.1474
3.66419	12.0739
3.66161	12.051
3.65902	12.136
3.65644	12.2073
3.65387	12.2188
3.65129	12.1508
3.64872	12.1456
3.64616	12.1381
3.64359	12.1033
3.64103	12.1167
3.63848	12.2134
3.63593	12.3046
3.63338	12.2639
3.63084	12.1579
3.6283	12.1102
3.62576	12.0879
3.62322	12.106
3.62069	12.2461
3.61817	12.2886
3.61564	12.1783
3.61312	12.1017
3.61061	12.0218
3.6081	11.9644
3.60559	11.9845
3.60308	11.8808
3.60058	11.7901
3.59808	11.6134
3.59558	11.5167
3.59309	11.5601
3.59061	11.468
3.58812	11.2643
3.58564	11.1072
3.58316	10.923
3.58069	10.7271
3.57822	10.7159
3.57575	10.6831
3.57328	10.4905
3.57082	10.2652
3.56836	10.1197
3.56591	9.97856
3.56346	9.80197
3.56101	9.61857
3.55857	9.6537
3.55613	9.62136
3.55369	9.40455
3.55126	9.16557
3.54883	9.04644
3.5464	8.94342
3.54397	8.82719
3.54155	8.79347
3.53914	8.65675
3.53672	8.43188
3.53431	8.2752
3.5319	8.24034
3.5295	8.13696
3.5271	8.11455
3.5247	8.15285
3.52231	8.10212
3.51991	7.95347
3.51753	7.81745
3.51514	7.71746
3.51276	7.68552
3.51038	7.53847
3.50801	7.41332
3.50563	7.38726
3.50327	7.23237
3.5009	6.95158
3.49854	6.88542
3.49618	6.96741
3.49382	6.84127
3.49147	6.73141
3.48912	6.64692
3.48677	6.48811
3.48443	6.36036
3.48209	6.24738
3.47975	6.20144
3.47742	6.27118
3.47509	6.23828
3.47276	6.00768
3.47044	5.87425
3.46812	5.80555
3.4658	5.76926
3.46348	5.74012
3.46117	5.65965
3.45886	5.64553
3.45656	5.62461
3.45425	5.42327
3.45195	5.2577
3.44966	5.22809
3.44736	5.21031
3.44507	5.06241
3.44279	4.91844
3.4405	4.84844
3.43822	4.75326
3.43594	4.69616
3.43367	4.65526
3.43139	4.61532
3.42912	4.64331
3.42686	4.5985
3.42459	4.49129
3.42233	4.45301
3.42007	4.35304
3.41782	4.36346
3.41557	4.34572
3.41332	4.18095
3.41108	4.03549
3.40883	3.96468
3.40659	3.85133
3.40435	3.82533
3.40212	3.83882
3.39989	3.77506
3.39766	3.74371
3.39544	3.66882
3.39322	3.52138
3.391	3.46953
3.38878	3.44936
3.38657	3.48551
3.38436	3.51794
3.38215	3.4254
3.37994	3.35099
3.37774	3.35502
3.37554	3.34004
3.37335	3.23541
3.37115	3.20278
3.36896	3.09436
3.36678	2.96459
3.36459	2.9271
3.36241	2.94424
3.36023	2.89417
3.35805	2.88206
3.35588	2.83169
3.35371	2.80159
3.35154	2.68331
3.34938	2.56801
3.34721	2.61466
3.34505	2.61543
3.3429	2.67379
3.34074	2.65559
3.33859	2.45748
3.33644	2.44832
3.3343	2.5334
3.33215	2.51135
3.33001	2.53003
3.32788	2.45742
3.32574	2.33309
3.32361	2.28794
3.32148	2.20876
3.31936	2.1257
3.31723	2.22894
3.31511	2.35434
3.31299	2.23378
3.31088	2.0512
3.30876	2.12051
3.30665	2.23305
3.30455	2.25899
3.30244	2.35866
3.30034	2.35786
3.29824	2.22423
3.29614	2.09165
3.29405	2.00412
3.29196	2.01849
3.28987	2.03054
3.28778	2.10299
3.2857	2.08842
3.28362	2.0308
3.28154	2.10241
3.27946	2.12079
3.27739	2.11037
3.27532	2.03303
3.27325	1.92338
3.27119	2.07493
3.26913	2.12381
3.26707	2.03497
3.26501	1.91192
3.26295	1.93796
3.2609	2.10692
3.25885	2.16936
3.2568	2.06749
3.25476	2.02695
3.25272	2.04675
3.25068	2.00436
3.24864	1.97234
3.24661	1.94157
3.24458	2.04044
3.24255	1.977
3.24052	1.78799
3.2385	1.93787
3.23648	2.10847
3.23446	2.04052
3.23244	1.95233
3.23043	1.86489
3.22841	1.94673
3.2264	2.02173
3.2244	2.00118
3.22239	1.92302
3.22039	1.91808
3.21839	2.01004
3.2164	1.9884
3.2144	1.85528
3.21241	1.85854
3.21042	1.99731
3.20844	2.00528
3.20645	1.82419
3.20447	1.90788
3.20249	1.97784
3.20051	1.89844
3.19854	1.89133
3.19657	1.96643
3.1946	2.02533
3.19263	2.00218
3.19067	1.95613
3.1887	1.90086
3.18674	1.8901
3.18479	1.87765
3.18283	1.75108
3.18088	1.75195
3.17893	1.86098
3.17698	1.82106
3.17504	1.78004
3.17309	1.69269
3.17115	1.72763
3.16921	1.8793
3.16728	1.9383
3.16534	1.88773
3.16341	1.79986
3.16148	1.73271
3.15956	1.66954
3.15763	1.67844
3.15571	1.72686
3.15379	1.72619
3.15187	1.73274
3.14996	1.85135
3.14805	1.87022
3.14614	1.73291
3.14423	1.7193
3.14232	1.8343
3.14042	1.76769
3.13852	1.70579
3.13662	1.70454
3.13472	1.69397
3.13283	1.66622
3.13094	1.70699
3.12905	1.79946
3.12716	1.78882
3.12528	1.76767
3.12339	1.68514
3.12151	1.70893
3.11964	1.84959
3.11776	1.83326
3.11589	1.75437
3.11401	1.82801
3.11214	1.86667
3.11028	1.76968
3.10841	1.66618
3.10655	1.69593
3.10469	1.83565
3.10283	1.75753
3.10098	1.66122
3.09912	1.64874
3.09727	1.75694
3.09542	1.77027
3.09358	1.72337
3.09173	1.77944
3.08989	1.78182
3.08805	1.74156
3.08621	1.77669
3.08437	1.75015
3.08254	1.6931
3.08071	1.77539
3.07888	1.84768
3.07705	1.87043
3.07523	1.90149
3.0734	1.9308
3.07158	1.86771
3.06977	1.8483
3.06795	1.92052
3.06613	1.87068
3.06432	1.76312
3.06251	1.87464
3.0607	1.92468
3.0589	1.81714
3.0571	1.80032
3.05529	1.88224
3.05349	1.93557
3.0517	1.9121
3.0499	1.72733
3.04811	1.75649
3.04632	1.91358
3.04453	1.92519
3.04274	1.94088
3.04096	1.91566
3.03918	1.93653
3.0374	1.91001
3.03562	1.93965
3.03384	1.99742
3.03207	2.00538
3.03029	1.94131
3.02852	1.85027
3.02676	1.87552
3.02499	1.89984
3.02323	1.99008
3.02146	2.04069
3.0197	2.03186
3.01795	1.98261
3.01619	1.97822
3.01444	1.93534
3.01269	1.89106
3.01094	1.87629
3.00919	1.79466
3.00744	1.66179
3.0057	1.49308
3.00396	1.57177
3.00222	1.69628
3.00048	1.58236
2.99875	1.45504
2.99701	1.3872
2.99528	1.31972
2.99355	1.2462
2.99183	1.23909
2.9901	1.21207
2.98838	1.30361
2.98666	1.32553
2.98494	1.34989
2.98322	1.34056
2.9815	1.29201
2.97979	1.42153
2.97808	1.41348
2.97637	1.3847
2.97466	1.3664
2.97295	1.44184
2.97125	1.45177
2.96955	1.47389
2.96785	1.62812
2.96615	1.59726
2.96446	1.48797
2.96276	1.43356
2.96107	1.47696
2.95938	1.50492
2.95769	1.49814
2.95601	1.50209
2.95432	1.51068
2.95264	1.42523
2.95096	1.42196
2.94928	1.37245
2.9476	1.32143
2.94593	1.39375
2.94425	1.59662
2.94258	1.493
2.94092	1.41723
2.93925	1.469
2.93758	1.44147
2.93592	1.56136
2.93426	1.61911
2.9326	1.57183
2.93094	1.56575
2.92928	1.55314
2.92763	1.46401
2.92598	1.41163
2.92433	1.47706
2.92268	1.55888
2.92103	1.50859
2.91939	1.57937
2.91775	1.63475
2.9161	1.68195
2.91447	1.66674
2.91283	1.62829
2.91119	1.57792
2.90956	1.37793
2.90793	1.30367
2.9063	1.36654
2.90467	1.39992
2.90304	1.44773
2.90142	1.56766
2.89979	1.63737
2.89817	1.70772
2.89656	1.68546
2.89494	1.69036
2.89332	1.80821
2.89171	1.83896
2.8901	1.6532
2.88849	1.53242
2.88688	1.53001
2.88527	1.5458
2.88367	1.56847
2.88206	1.67954
2.88046	1.56855
2.87886	1.41138
2.87727	1.48973
2.87567	1.65882
2.87408	1.77705
2.87248	1.81394
2.87089	1.73119
2.8693	1.64191
2.86772	1.7238
2.86613	1.7314
2.86455	1.79878
2.86297	1.89828
2.86139	1.84895
2.85981	1.7325
2.85823	1.67513
2.85666	1.75677
2.85508	1.7848
2.85351	1.72061
2.85194	1.74713
2.85038	1.94526
2.84881	1.94365
2.84724	1.94674
2.84568	2.01755
2.84412	2.06436
2.84256	2.05179
2.841	1.97187
2.83945	2.0003
2.83789	2.00143
2.83634	2.02745
2.83479	2.03624
2.83324	1.90662
2.83169	1.9515
2.83015	1.97642
2.82861	1.95873
2.82706	1.87525
2.82552	1.69607
2.82398	1.52873
2.82245	1.35299
2.82091	1.19474
2.81938	1.04485
2.81784	1.03716
2.81631	1.13549
2.81479	0.964988
2.81326	1.0106
2.81173	1.28011
2.81021	1.09172
2.80869	0.896459
2.80716	1.0695
2.80565	1.12984
2.80413	1.11623
2.80261	1.10296
2.8011	1.05267
2.79959	1.09323
2.79808	1.06086
2.79657	1.04754
2.79506	1.1107
2.79355	1.11507
2.79205	1.08174
2.79055	1.07711
2.78904	1.18335
2.78754	1.27644
2.78605	1.09722
2.78455	0.923983
2.78306	1.02855
2.78156	1.16284
2.78007	1.30339
2.77858	1.38375
2.77709	1.48201
2.77561	1.4137
2.77412	0.997686
2.77264	0.85864
2.77116	1.1953
2.76968	1.43572
2.7682	1.47085
2.76672	1.50223
2.76524	1.40813
2.76377	1.21019
2.7623	1.1792
2.76083	1.51837
2.75936	1.79492
2.75789	1.51319
2.75642	1.549
2.75496	1.63667
2.7535	1.42363
2.75203	1.48272
2.75057	1.61294
2.74912	1.52791
2.74766	1.52474
2.7462	1.54921
2.74475	1.53157
2.7433	1.69771
2.74185	1.91706
2.7404	1.80771
2.73895	1.73268
2.7375	1.72238
2.73606	1.74313
2.73462	1.80463
2.73318	1.78202
2.73174	1.8169
2.7303	1.99267
2.72886	2.05742
2.72742	2.11716
2.72599	2.42532
2.72456	2.61229
2.72313	2.6139
2.7217	2.72348
2.72027	2.87036
2.71884	3.17634
2.71742	3.50601
2.71599	3.70071
2.71457	3.81815
2.71315	4.14051
2.71173	4.47995
2.71032	4.75589
2.7089	4.95284
2.70748	5.09609
2.70607	5.42967
2.70466	5.85955
2.70325	6.10448
2.70184	6.38628
2.70043	6.59041
2.69903	6.77115
2.69762	6.9476
2.69622	7.13502
2.69482	7.3815
2.69342	7.6405
2.69202	7.84155
2.69062	7.81162
2.68923	7.73168
2.68783	7.89678
2.68644	7.98636
2.68505	8.05264
2.68366	8.13115
2.68227	8.25305
2.68089	8.1429
2.6795	8.11192
2.67812	8.20769
2.67673	8.40857
2.67535	8.38113
2.67397	8.15623
2.6726	8.18855
2.67122	8.51748
2.66984	8.58137
2.66847	8.50568
2.6671	8.75557
2.66572	8.98364
2.66435	9.11132
2.66299	9.32729
2.66162	9.56488
2.66025	9.71995
2.65889	9.6938
2.65753	9.65809
2.65616	9.92576
2.65481	10.0322
2.65345	10.1248
2.65209	10.2492
2.65073	10.1841
2.64938	10.2503
2.64803	10.1962
2.64667	10.103
2.64532	10.0482
2.64397	10.0733
2.64263	10.218
2.64128	10.1805
2.63994	10.2444
2.63859	10.292
2.63725	10.4231
2.63591	10.7758
2.63457	11.0706
2.63323	11.2756
2.6319	11.5834
2.63056	11.9213
2.62923	12.0031
2.62789	12.2235
2.62656	12.5268
2.62523	12.6127
2.6239	12.6436
2.62258	12.9867
2.62125	13.408
2.61993	13.4959
2.6186	13.4315
2.61728	13.6159
2.61596	13.5445
2.61464	13.3439
2.61332	13.3954
2.61201	13.3689
2.61069	13.296
2.60938	13.3198
2.60807	13.1194
2.60675	12.9602
2.60544	12.9012
2.60414	12.6339
2.60283	12.4398
2.60152	12.1345
2.60022	11.7516
2.59891	11.3347
2.59761	11.0277
2.59631	10.8987
2.59501	10.7754
2.59371	10.271
2.59242	9.86337
2.59112	9.66857
2.58983	9.45396
2.58853	9.31401
2.58724	9.26855
2.58595	9.36251
2.58466	9.54098
2.58338	9.75199
2.58209	9.93497
2.5808	10.097
2.57952	10.3883
2.57824	10.8324
2.57695	11.1754
2.57567	11.5689
2.5744	12.1626
2.57312	12.5603
2.57184	12.8037
2.57057	13.3211
2.56929	13.8192
2.56802	14.15
2.56675	14.5916
2.56548	15.0423
2.56421	15.5595
2.56294	16.1815
2.56168	16.7466
2.56041	17.1041
2.55915	17.3806
2.55789	17.6637
2.55662	18.1139
2.55536	18.6495
2.5541	19.1837
2.55285	19.7988
2.55159	20.1872
2.55034	20.4775
2.54908	20.8452
2.54783	21.1202
2.54658	21.451
2.54533	21.7696
2.54408	22.0555
2.54283	22.3251
2.54159	22.5424
2.54034	22.5869
2.5391	22.671
2.53785	23.0209
2.53661	23.231
2.53537	23.2124
2.53413	23.2796
2.53289	23.545
2.53166	23.6857
2.53042	23.6621
2.52919	23.7105
2.52795	23.8443
2.52672	24.0208
2.52549	24.1303
2.52426	24.2374
2.52303	24.201
2.52181	24.1762
2.52058	24.3752
2.51936	24.602
2.51813	24.6602
2.51691	24.6286
2.51569	24.6969
2.51447	24.7578
2.51325	24.7322
2.51203	24.7633
2.51082	24.8721
2.5096	25.0821
2.50839	25.2974
2.50717	25.3655
2.50596	25.4791
2.50475	25.5383
2.50354	25.4962
2.50233	25.4987
2.50113	25.4226
2.49992	25.4275
2.49872	25.4738
2.49751	25.2773
2.49631	25.0205
2.49511	24.8405
2.49391	24.677
2.49271	24.4222
2.49151	24.0349
2.49031	23.6048
2.48912	23.334
2.48792	23.0292
2.48673	22.5932
2.48554	21.943
2.48435	21.4109
2.48316	21.0442
2.48197	20.6142
2.48078	19.9944
2.4796	19.6123
2.47841	19.1902
2.47723	18.5687
2.47604	17.9953
2.47486	17.5955
2.47368	17.1359
2.4725	16.6382
2.47132	16.3516
2.47014	15.9473
2.46897	15.4756
2.46779	15.054
2.46662	14.8227
2.46545	14.7351
2.46427	14.6095
2.4631	14.3581
2.46193	14.4178
2.46077	14.6693
2.4596	14.7871
2.45843	14.7384
2.45727	14.7262
2.4561	15.0174
2.45494	15.2354
2.45378	15.3467
2.45262	15.2956
2.45146	15.1719
2.4503	15.1236
2.44914	15.0828
2.44799	15.0627
2.44683	14.8965
2.44568	14.6151
2.44452	14.2825
2.44337	13.9624
2.44222	13.5181
2.44107	13.1493
2.43992	12.9266
2.43877	12.5819
2.43763	12.1887
2.43648	11.9839
2.43534	11.7852
2.43419	11.5899
2.43305	11.3914
2.43191	11.1475
2.43077	11.108
2.42963	11.2253
2.42849	11.3354
2.42736	11.5092
2.42622	11.6185
2.42509	11.8272
2.42395	12.2017
2.42282	12.7013
2.42169	13.0012
2.42056	13.3873
2.41943	13.8699
2.4183	14.348
2.41717	14.8853
2.41605	15.564
2.41492	16.2962
2.4138	16.7853
2.41267	17.3009
2.41155	17.972
2.41043	18.6037
2.40931	19.3242
2.40819	20.1046
2.40707	20.7547
2.40595	21.3727
2.40484	22.0746
2.40372	22.7591
2.40261	23.3522
2.4015	23.9631
2.40039	24.4743
2.39928	24.9245
2.39817	25.5075
2.39706	25.9615
2.39595	26.3371
2.39484	26.6372
2.39374	26.7914
2.39263	27.111
2.39153	27.4149
2.39043	27.5049
2.38932	27.634
2.38822	27.7579
2.38712	27.9285
2.38603	28.1654
2.38493	28.2406
2.38383	28.1543
2.38274	28.2905
2.38164	28.5111
2.38055	28.6843
2.37946	29.0225
2.37836	29.3725
2.37727	29.3713
2.37618	29.3432
2.3751	29.6129
2.37401	29.9109
2.37292	30.1887
2.37184	30.4565
2.37075	30.7449
2.36967	31.0428
2.36859	31.4135
2.3675	31.7067
2.36642	31.9472
2.36534	32.2594
2.36427	32.5329
2.36319	32.879
2.36211	33.3033
2.36104	33.4757
2.35996	33.618
2.35889	33.8767
2.35781	34.1662
2.35674	34.5058
2.35567	34.76
2.3546	34.9152
2.35353	35.047
2.35247	35.2694
2.3514	35.4978
2.35033	35.5222
2.34927	35.5917
2.3482	35.724
2.34714	35.9402
2.34608	36.1323
2.34502	36.3105
2.34396	36.5989
2.3429	36.8481
2.34184	37.1552
2.34078	37.4489
2.33973	37.6939
2.33867	37.9934
2.33762	38.4738
2.33656	38.8722
2.33551	39.1664
2.33446	39.282
2.33341	39.3041
2.33236	39.5041
2.33131	39.8824
2.33026	40.2407
2.32922	40.5836
2.32817	40.8585
2.32712	41.162
2.32608	41.3559
2.32504	41.5506
2.324	41.8595
2.32295	42.0833
2.32191	42.2737
2.32087	42.4949
2.31984	42.7561
2.3188	42.9632
2.31776	43.1462
2.31673	43.4796
2.31569	43.7621
2.31466	44
2.31362	44.27
2.31259	44.4644
2.31156	44.5809
2.31053	44.6931
2.3095	44.8748
2.30847	45.0532
2.30745	45.1591
2.30642	45.2795
2.3054	45.4308
2.30437	45.4667
2.30335	45.6209
2.30232	45.6681
2.3013	45.6716
2.30028	45.6434
2.29926	45.5815
2.29824	45.5492
2.29722	45.6482
2.29621	45.6945
2.29519	45.5208
2.29417	45.3817
2.29316	45.4577
2.29215	45.2859
2.29113	45.0109
2.29012	44.8774
2.28911	44.646
2.2881	44.3419
2.28709	44.1547
2.28608	44.0407
2.28507	43.8319
2.28407	43.6318
2.28306	43.4221
2.28206	43.3808
2.28105	43.3301
2.28005	43.1442
2.27905	43.1074
2.27805	43.1503
2.27705	43.0045
2.27605	42.8626
2.27505	42.9047
2.27405	42.9517
2.27305	42.8155
2.27206	42.9672
2.27106	43.2886
2.27007	43.4421
2.26907	43.5825
2.26808	43.7431
2.26709	43.901
2.2661	43.8942
2.26511	44.1533
2.26412	44.4379
2.26313	44.5098
2.26214	44.5946
2.26116	44.6412
2.26017	44.7755
2.25919	45.0369
2.2582	45.2858
2.25722	45.2819
2.25624	45.2512
2.25526	45.3247
2.25428	45.3558
2.2533	45.4243
2.25232	45.4421
2.25134	45.4344
2.25036	45.4021
2.24939	45.2578
2.24841	45.1158
2.24744	45.0966
2.24646	45.0837
2.24549	45.0023
2.24452	44.7734
2.24355	44.6183
2.24257	44.5879
2.24161	44.6004
2.24064	44.555
2.23967	44.1836
2.2387	43.8599
2.23774	43.8987
2.23677	43.8248
2.23581	43.4829
2.23484	43.1745
2.23388	43.0317
2.23292	42.9726
2.23196	42.8449
2.231	42.561
2.23004	42.2211
2.22908	41.9329
2.22812	41.5509
2.22716	41.2996
2.22621	41.0091
2.22525	40.7132
2.2243	40.431
2.22334	40.1053
2.22239	39.7353
2.22144	39.2248
2.22049	38.6401
2.21953	38.2844
2.21859	37.8659
2.21764	37.3685
2.21669	36.9226
2.21574	36.4256
2.21479	36.0757
2.21385	35.6734
2.2129	35.2182
2.21196	34.7747
2.21102	34.2084
2.21007	33.7115
2.20913	33.2251
2.20819	32.745
2.20725	32.3972
2.20631	31.9734
2.20537	31.3744
2.20444	30.903
2.2035	30.6062
2.20256	30.3469
2.20163	30.1018
2.20069	29.9349
2.19976	29.806
2.19883	29.6243
2.19789	29.4555
2.19696	29.5722
2.19603	29.8746
2.1951	30.035
2.19417	30.1694
2.19325	30.2965
2.19232	30.5221
2.19139	30.8813
2.19047	31.242
2.18954	31.5873
2.18862	31.8314
2.18769	32.0422
2.18677	32.283
2.18585	32.6827
2.18493	33.0816
2.18401	33.3368
2.18309	33.6165
2.18217	34.0287
2.18125	34.354
2.18033	34.5265
2.17942	34.6274
2.1785	34.6398
2.17759	34.8185
2.17667	34.9503
2.17576	35.0385
2.17485	35.1997
2.17393	35.187
2.17302	35.2876
2.17211	35.3369
2.1712	35.4262
2.17029	35.4688
2.16939	35.2981
2.16848	35.2451
2.16757	35.1852
2.16667	35.1849
2.16576	35.2537
2.16486	35.2446
2.16395	35.2801
2.16305	35.3488
2.16215	35.374
2.16125	35.426
2.16035	35.6395
2.15945	35.602
2.15855	35.4819
2.15765	35.6179
2.15675	35.8147
2.15586	35.9581
2.15496	35.9269
2.15406	36.0876
2.15317	36.2703
2.15228	36.3107
2.15138	36.1772
2.15049	36.2514
2.1496	36.2329
2.14871	36.324
2.14782	36.6104
2.14693	36.9812
2.14604	37.1657
2.14515	37.04
2.14427	36.9472
2.14338	37.2297
2.14249	37.3604
2.14161	37.2588
2.14072	37.3843
2.13984	37.4222
2.13896	37.3866
2.13808	37.3299
2.13719	37.4327
2.13631	37.5727
2.13543	37.5593
2.13455	37.3987
2.13368	37.2647
2.1328	37.2436
2.13192	37.3419
2.13105	37.314
2.13017	37.0883
2.1293	36.8526
2.12842	36.6661
2.12755	36.5371
2.12668	36.5609
2.1258	36.5246
2.12493	36.0406
2.12406	35.8233
2.12319	35.8404
2.12232	35.5982
2.12145	35.4043
2.12059	35.3728
2.11972	35.3338
2.11885	35.1833
2.11799	34.8208
2.11712	34.6164
2.11626	34.3391
2.1154	34.1838
2.11453	33.8905
2.11367	33.5464
2.11281	33.3072
2.11195	33.0164
2.11109	32.8263
2.11023	32.6277
2.10937	32.3137
2.10851	32.093
2.10766	31.9378
2.1068	31.5392
2.10594	31.3014
2.10509	31.006
2.10423	30.4493
2.10338	29.9663
2.10253	29.2449
2.10168	28.6339
2.10082	28.4354
2.09997	28.432
2.09912	27.9454
2.09827	27.5049
2.09742	27.4061
2.09658	27.2122
2.09573	26.6666
2.09488	26.1628
2.09404	25.7022
2.09319	25.6723
2.09235	25.7061
2.0915	25.5272
2.09066	25.4624
2.08982	25.1922
2.08897	25.08
2.08813	25.0015
2.08729	24.6775
2.08645	24.3444
2.08561	24.6343
2.08477	24.4846
2.08394	24.2357
2.0831	24.2403
2.08226	24.2804
2.08143	24.5047
2.08059	24.4044
2.07976	24.4582
2.07892	25.0268
2.07809	25.251
2.07726	25.0637
2.07643	24.783
2.07559	24.7053
2.07476	24.4638
2.07393	24.403
2.0731	24.9299
2.07228	24.991
2.07145	24.7027
2.07062	25.2899
2.06979	26.1755
2.06897	26.2624
2.06814	25.523
2.06732	25.1474
2.06649	25.642
2.06567	26.2101
2.06485	26.3912
2.06403	26.2838
2.0632	26.175
2.06238	26.0587
2.06156	26.1549
2.06074	26.2479
2.05993	26.228
2.05911	26.2368
2.05829	26.2745
2.05747	26.1924
2.05666	26.0258
2.05584	25.9406
2.05503	25.8862
2.05421	25.8927
2.0534	25.822
2.05259	25.6596
2.05177	25.4503
2.05096	25.393
2.05015	25.3791
2.04934	25.3282
2.04853	25.0557
2.04772	24.7256
2.04691	24.664
2.04611	24.5897
2.0453	24.268
2.04449	24.0526
2.04369	23.8529
2.04288	23.6334
2.04208	23.3833
2.04127	22.9407
2.04047	22.5138
2.03967	21.9636
2.03886	21.6775
2.03806	21.5252
2.03726	21.1885
2.03646	21.0222
2.03566	20.5613
2.03486	20.0604
2.03407	19.8682
2.03327	19.9364
2.03247	19.2315
2.03167	18.5215
2.03088	18.3637
2.03008	17.9965
2.02929	17.6461
2.0285	17.5123
2.0277	17.0635
2.02691	16.5372
2.02612	16.1375
2.02533	16.1214
2.02453	15.9004
2.02374	15.7393
2.02295	15.5163
2.02217	15.1579
2.02138	15.0037
2.02059	15.0079
2.0198	15.1532
2.01902	14.8707
2.01823	14.2844
2.01744	14.0671
2.01666	14.1622
2.01588	14.0601
2.01509	13.8226
2.01431	14.004
2.01353	14.1407
2.01275	14.0591
2.01196	13.8072
2.01118	13.4619
2.0104	13.2904
2.00963	13.4091
2.00885	13.5121
2.00807	13.4416
2.00729	13.4626
2.00651	13.5765
2.00574	13.3654
2.00496	13.2167
2.00419	13.4239
2.00341	13.7021
2.00264	13.8923
2.00187	13.9925
2.00109	13.8432
2.00032	13.7985
