Name: Ferroaxinite Ca_2Fe^2+Al_2BSi_4O_15(OH)
Type: Mineral
Class: Silicates
Subclass: Cyclosilicates
Particle Size: 125-500um
Sample No.: CS-4A
Owner: JPL
Wavelength range: IR
Origin: Mexico, Baja California Norte, Los Gavelontos
Collected by Ward's
Description: 





Measurement: Hemispherical reflectance
First Column: X
Second Column: Y
X Units:  Wavelength (micrometers)
Y Units:  Reflectance (percent)
First X Value: 15.3853
Last X Value: 2.00032
Number of X Values: 2256
Additional information: cs04aa.txt
 
15.3853	1.5904
15.3397	1.42135
15.2945	1.3923
15.2495	1.39836
15.2048	1.75013
15.1603	2.36331
15.1161	2.74865
15.0722	3.27634
15.0285	3.52559
14.9851	3.41234
14.9419	3.24082
14.8989	2.82394
14.8563	2.24915
14.8138	1.86157
14.7716	1.8439
14.7296	2.0106
14.6879	1.9122
14.6464	1.62645
14.6052	1.35325
14.5641	1.27688
14.5233	1.73663
14.4828	1.93177
14.4424	1.92645
14.4023	2.05253
14.3624	2.18788
14.3227	2.16431
14.2833	2.0679
14.244	2.30166
14.205	2.47595
14.1662	2.46895
14.1276	2.56235
14.0892	2.7415
14.051	2.82069
14.0131	2.94832
13.9753	3.05814
13.9377	3.23006
13.9004	3.35444
13.8632	3.33362
13.8262	3.4662
13.7895	3.46829
13.7529	3.42675
13.7165	3.39746
13.6803	3.40415
13.6443	3.76007
13.6085	4.11461
13.5729	4.27546
13.5374	4.1973
13.5022	4.0523
13.4671	4.10533
13.4322	4.14775
13.3975	4.2354
13.363	4.44139
13.3286	4.58679
13.2944	4.74014
13.2604	4.69708
13.2266	4.75814
13.193	4.87713
13.1595	4.97504
13.1262	5.14575
13.093	5.31853
13.06	5.43992
13.0272	5.60106
12.9946	5.65794
12.9621	5.82429
12.9298	5.99517
12.8976	6.0679
12.8656	6.07389
12.8337	6.04561
12.8021	6.04302
12.7705	5.78346
12.7391	5.58799
12.7079	5.64677
12.6769	5.62878
12.6459	5.69048
12.6152	5.66104
12.5845	5.79224
12.5541	6.1679
12.5238	6.36676
12.4936	6.47235
12.4635	6.69534
12.4337	6.81203
12.4039	6.89322
12.3743	7.02637
12.3448	7.30395
12.3155	7.73881
12.2863	7.98551
12.2573	8.10284
12.2284	8.10664
12.1996	8.23269
12.171	8.68193
12.1425	9.05712
12.1141	9.16013
12.0859	9.08449
12.0578	9.00886
12.0298	8.8954
12.0019	8.8223
11.9742	9.09394
11.9466	9.46263
11.9192	9.68296
11.8918	9.99685
11.8646	10.5601
11.8375	11.1472
11.8106	11.6904
11.7837	12.1096
11.757	12.5912
11.7304	13.1514
11.7039	13.4972
11.6776	13.4933
11.6513	13.521
11.6252	13.7882
11.5992	14.149
11.5733	14.6602
11.5475	15.2082
11.5219	15.8881
11.4963	16.6644
11.4709	17.4297
11.4455	18.2023
11.4203	18.8561
11.3952	19.287
11.3702	19.6217
11.3454	19.7638
11.3206	19.76
11.2959	19.7876
11.2714	20.0682
11.2469	20.4398
11.2226	20.6439
11.1983	20.6177
11.1742	20.2037
11.1502	19.3406
11.1263	18.1331
11.1024	16.553
11.0787	14.8895
11.0551	13.6857
11.0316	13.0463
11.0081	12.9782
10.9848	13.5566
10.9616	14.418
10.9385	15.5048
10.9154	16.6712
10.8925	17.7168
10.8697	18.5072
10.8469	19.0644
10.8243	19.4095
10.8017	19.6222
10.7793	19.9493
10.7569	20.5049
10.7346	21.2702
10.7125	22.3074
10.6904	23.3083
10.6684	24.195
10.6465	25.296
10.6247	26.3914
10.6029	27.256
10.5813	27.7027
10.5597	27.787
10.5383	27.5313
10.5169	26.8444
10.4956	25.6683
10.4744	24.0498
10.4533	22.106
10.4323	20.0041
10.4113	17.9246
10.3904	16.2256
10.3697	14.877
10.349	13.7787
10.3284	12.7535
10.3078	11.7446
10.2874	10.7654
10.267	9.70997
10.2467	8.6909
10.2265	8.08735
10.2064	7.91756
10.1863	8.06034
10.1663	8.36821
10.1464	8.53358
10.1266	8.67823
10.1069	8.80777
10.0872	8.56998
10.0676	8.28513
10.0481	8.17317
10.0287	8.3471
10.0093	8.88713
9.99005	9.81469
9.97084	10.6785
9.95169	11.1041
9.93263	11.1753
9.91364	10.9186
9.89472	10.4703
9.87587	9.79136
9.8571	9.03219
9.83839	8.18783
9.81976	7.36345
9.80119	6.65352
9.78271	6.25512
9.76428	6.08379
9.74592	6.23058
9.72764	6.77324
9.70943	7.67009
9.69128	8.85616
9.6732	10.2312
9.65518	11.5758
9.63724	12.9104
9.61935	14.249
9.60155	15.5418
9.5838	16.5823
9.56611	17.3713
9.5485	18.0651
9.53094	18.4394
9.51345	18.4452
9.49604	18.2554
9.47867	18.055
9.46137	17.7731
9.44414	18.0809
9.42697	19.1623
9.40986	20.6149
9.39281	22.102
9.37583	23.5578
9.35891	24.7133
9.34204	25.4065
9.32524	25.5206
9.3085	25.0734
9.29182	24.217
9.27519	23.3224
9.25863	22.6854
9.24213	22.3922
9.22568	22.5273
9.2093	23.0125
9.19297	23.8209
9.17669	24.7781
9.16048	25.7238
9.14433	26.3913
9.12823	26.3501
9.11218	25.8731
9.0962	24.9757
9.08027	23.5542
9.06439	21.7609
9.04858	19.945
9.03281	18.3976
9.0171	17.1037
9.00145	15.8753
8.98585	14.675
8.9703	13.4583
8.9548	12.3614
8.93937	11.3934
8.92398	10.5561
8.90865	9.81598
8.89337	9.03271
8.87814	8.38894
8.86296	7.90792
8.84784	7.34947
8.83277	6.80856
8.81774	6.5901
8.80277	6.35621
8.78786	6.31119
8.77298	6.39506
8.75816	6.35127
8.7434	6.16026
8.72868	5.97336
8.714	5.77367
8.69938	5.4004
8.68481	4.94137
8.67029	4.38592
8.65581	3.66132
8.64139	3.01441
8.62701	2.57604
8.61268	2.19739
8.5984	1.83361
8.58416	1.49638
8.56997	1.23486
8.55583	1.06889
8.54174	0.968402
8.52769	0.807843
8.51368	0.602103
8.49973	0.52878
8.48582	0.445317
8.47195	0.432109
8.45813	0.333188
8.44436	0.180483
8.43062	0.0107889
8.41693	-0.000484294
8.4033	0.164865
8.3897	0.164365
8.37614	0.15902
8.36264	0.2512
8.34917	0.122561
8.33574	0.033904
8.32236	0.113912
8.30903	0.238882
8.29573	0.255695
8.28248	0.189078
8.26927	0.0827883
8.2561	0.0559983
8.24298	0.0961372
8.2299	0.145922
8.21685	0.203109
8.20385	0.21526
8.19089	0.185888
8.17797	0.144173
8.16509	0.289472
8.15225	0.375116
8.13946	0.343684
8.1267	0.347428
8.11398	0.25729
8.10131	0.227522
8.08867	0.206447
8.07606	0.15289
8.0635	0.259408
8.05099	0.422951
8.0385	0.43083
8.02606	0.337878
8.01366	0.28426
8.00129	0.414489
7.98896	0.491096
7.97667	0.504069
7.96442	0.506205
7.9522	0.513528
7.94002	0.519435
7.92788	0.490391
7.91578	0.465759
7.90371	0.479623
7.89168	0.416921
7.87969	0.410573
7.86773	0.550903
7.85581	0.635684
7.84392	0.624402
7.83207	0.628223
7.82026	0.580032
7.80849	0.593251
7.79674	0.651284
7.78503	0.682925
7.77337	0.749401
7.76173	0.848129
7.75012	0.849702
7.73856	0.782876
7.72703	0.74967
7.71553	0.762882
7.70406	0.820615
7.69263	0.875209
7.68123	0.933471
7.66987	0.866667
7.65855	0.919395
7.64725	1.06398
7.63598	1.02701
7.62475	0.968188
7.61356	1.03299
7.60239	1.04587
7.59126	1.07921
7.58017	1.03459
7.5691	0.990171
7.55806	1.07026
7.54707	1.19425
7.5361	1.25155
7.52516	1.17027
7.51425	1.15227
7.50338	1.16357
7.49253	1.19327
7.48172	1.36891
7.47094	1.43449
7.46019	1.32053
7.44947	1.30437
7.43879	1.41278
7.42813	1.49694
7.4175	1.4721
7.4069	1.46386
7.39634	1.46516
7.3858	1.49017
7.37529	1.52422
7.36482	1.51129
7.35437	1.5873
7.34396	1.69776
7.33357	1.68077
7.32321	1.57909
7.31288	1.59901
7.30258	1.7271
7.29231	1.77568
7.28207	1.73537
7.27185	1.75151
7.26167	1.7332
7.25152	1.72767
7.24139	1.75755
7.23129	1.7282
7.22122	1.81197
7.21117	1.89113
7.20116	1.87223
7.19117	1.8912
7.18121	1.85594
7.17128	1.80688
7.16137	1.88637
7.1515	1.96869
7.14164	1.96728
7.13182	2.08502
7.12203	2.23623
7.11225	2.16368
7.10251	2.05515
7.0928	2.08219
7.08311	2.18189
7.07344	2.23415
7.06381	2.24317
7.0542	2.28128
7.04461	2.38024
7.03506	2.29205
7.02552	2.18697
7.01601	2.16656
7.00653	2.22698
6.99708	2.36823
6.98765	2.40825
6.97824	2.40709
6.96886	2.42419
6.95951	2.33997
6.95018	2.1796
6.94087	2.26536
6.9316	2.29454
6.92234	2.25421
6.91311	2.35032
6.90391	2.43657
6.89473	2.45536
6.88557	2.50797
6.87644	2.53385
6.86733	2.61228
6.85824	2.60651
6.84918	2.43778
6.84015	2.41253
6.83114	2.46121
6.82215	2.48292
6.81319	2.50292
6.80424	2.53965
6.79532	2.56911
6.78643	2.50964
6.77756	2.47849
6.76871	2.49761
6.75989	2.57177
6.75109	2.61576
6.74231	2.60534
6.73355	2.49407
6.72482	2.49043
6.71611	2.6226
6.70742	2.59458
6.69875	2.49838
6.69011	2.52436
6.68149	2.65659
6.67289	2.67919
6.66431	2.63984
6.65576	2.61652
6.64722	2.68077
6.63871	2.7831
6.63022	2.81604
6.62175	2.85466
6.61331	2.8967
6.60488	2.80769
6.59648	2.85376
6.5881	2.87084
6.57974	2.88958
6.5714	2.96167
6.56308	2.95153
6.55478	2.98256
6.54651	2.99245
6.53825	2.98066
6.53001	2.96533
6.5218	2.95531
6.51361	2.95643
6.50544	3.04944
6.49729	3.21267
6.48915	3.22952
6.48104	3.14411
6.47295	3.07083
6.46488	3.08969
6.45683	3.16576
6.4488	3.12682
6.44079	3.15929
6.4328	3.27799
6.42482	3.33416
6.41687	3.43714
6.40894	3.31346
6.40103	3.15857
6.39314	3.21
6.38526	3.3201
6.37741	3.41442
6.36957	3.43813
6.36176	3.307
6.35396	3.30569
6.34618	3.42552
6.33843	3.40033
6.33069	3.35693
6.32297	3.41833
6.31527	3.46338
6.30758	3.46359
6.29992	3.52833
6.29227	3.52946
6.28465	3.4764
6.27704	3.49805
6.26945	3.56072
6.26188	3.52984
6.25432	3.4911
6.24679	3.56358
6.23927	3.56267
6.23177	3.61185
6.22429	3.63963
6.21683	3.66048
6.20938	3.69948
6.20195	3.69882
6.19454	3.75618
6.18715	3.91966
6.17978	3.82376
6.17242	3.70568
6.16508	3.77782
6.15776	3.75352
6.15045	3.74927
6.14317	3.82786
6.1359	3.88203
6.12864	3.8889
6.12141	3.90692
6.11419	3.97605
6.10699	3.93703
6.0998	3.80749
6.09263	3.7408
6.08549	3.76469
6.07835	3.90266
6.07123	4.02514
6.06413	3.8937
6.05705	4.00004
6.04998	4.28224
6.04293	4.08984
6.0359	3.87277
6.02888	3.83595
6.02187	3.91985
6.01489	3.92831
6.00792	3.77944
6.00096	3.68028
5.99403	3.68303
5.98711	3.71428
5.9802	3.65043
5.97331	3.56701
5.96644	3.53235
5.95958	3.51494
5.95274	3.49717
5.94591	3.50518
5.9391	3.58175
5.9323	3.45425
5.92552	3.29379
5.91876	3.26812
5.91201	3.21937
5.90528	3.17913
5.89856	3.23949
5.89186	3.17751
5.88517	3.18561
5.8785	3.1879
5.87184	3.01674
5.8652	3.01542
5.85857	2.94648
5.85196	2.90374
5.84536	2.78077
5.83878	2.7138
5.83221	2.77193
5.82566	2.88093
5.81912	2.88774
5.81259	2.66182
5.80608	2.5311
5.79959	2.53302
5.79311	2.5602
5.78665	2.59881
5.78019	2.61827
5.77376	2.62394
5.76734	2.62669
5.76093	2.53823
5.75453	2.40804
5.74815	2.4221
5.74179	2.52141
5.73543	2.57815
5.7291	2.53285
5.72277	2.53164
5.71646	2.68285
5.71017	2.794
5.70389	2.77598
5.69762	2.67684
5.69136	2.62011
5.68513	2.6924
5.6789	2.78106
5.67268	2.78864
5.66648	2.7601
5.6603	2.78791
5.65413	2.88741
5.64797	3.05556
5.64182	3.07328
5.63569	2.99122
5.62957	3.00409
5.62347	3.11439
5.61737	3.13359
5.61129	3.10472
5.60522	3.18848
5.59917	3.28513
5.59313	3.29408
5.5871	3.21429
5.58109	3.22841
5.57509	3.3537
5.5691	3.38821
5.56312	3.37804
5.55716	3.3991
5.55121	3.49399
5.54528	3.60797
5.53935	3.57474
5.53344	3.49066
5.52754	3.52386
5.52166	3.5814
5.51578	3.62483
5.50992	3.65469
5.50407	3.63748
5.49823	3.60948
5.49241	3.63787
5.4866	3.63948
5.4808	3.66185
5.47501	3.70184
5.46923	3.71076
5.46347	3.73912
5.45772	3.71496
5.45198	3.68558
5.44625	3.70847
5.44054	3.75274
5.43484	3.75668
5.42914	3.7064
5.42347	3.72426
5.4178	3.77739
5.41214	3.80434
5.4065	3.79601
5.40087	3.84555
5.39525	3.86241
5.38964	3.85213
5.38404	3.96019
5.37846	3.96755
5.37288	3.89974
5.36732	3.92569
5.36177	3.9852
5.35623	3.98415
5.35071	3.94721
5.34519	3.95012
5.33968	4.01225
5.33419	4.02804
5.32871	3.97795
5.32324	4.01837
5.31778	4.15536
5.31233	4.17714
5.30689	4.16918
5.30147	4.17148
5.29605	4.21898
5.29065	4.25179
5.28525	4.21851
5.27987	4.22271
5.2745	4.3151
5.26914	4.43636
5.26379	4.38692
5.25845	4.30478
5.25312	4.30101
5.24781	4.27085
5.2425	4.22757
5.23721	4.2107
5.23192	4.24852
5.22665	4.25746
5.22138	4.2852
5.21613	4.38263
5.21089	4.39189
5.20566	4.30032
5.20044	4.32754
5.19522	4.39702
5.19002	4.35371
5.18483	4.34938
5.17965	4.38966
5.17448	4.40635
5.16933	4.33669
5.16418	4.28804
5.15904	4.39866
5.15391	4.46858
5.14879	4.45288
5.14368	4.45709
5.13859	4.4936
5.1335	4.54302
5.12842	4.60301
5.12335	4.68046
5.1183	4.73128
5.11325	4.72338
5.10821	4.65449
5.10318	4.71702
5.09817	4.78942
5.09316	4.78075
5.08816	4.85303
5.08317	4.94929
5.07819	4.89305
5.07322	4.88909
5.06826	4.94182
5.06331	5.05583
5.05837	5.13164
5.05344	5.17938
5.04852	5.1456
5.04361	5.12701
5.03871	5.13184
5.03382	5.11297
5.02894	5.18556
5.02406	5.28004
5.0192	5.36027
5.01435	5.445
5.0095	5.52722
5.00467	5.58695
4.99984	5.60607
4.99502	5.59539
4.99021	5.66345
4.98542	5.7589
4.98063	5.82416
4.97585	5.77471
4.97108	5.76241
4.96632	5.83316
4.96156	5.91207
4.95682	5.92801
4.95209	5.95741
4.94736	5.99488
4.94264	6.02753
4.93794	6.08771
4.93324	6.14322
4.92855	6.21991
4.92387	6.3467
4.9192	6.47116
4.91453	6.54652
4.90988	6.57381
4.90524	6.56748
4.9006	6.65054
4.89597	6.71683
4.89135	6.76065
4.88674	6.90735
4.88214	7.06154
4.87755	7.18957
4.87296	7.26063
4.86839	7.25782
4.86382	7.32641
4.85926	7.53216
4.85471	7.66027
4.85017	7.68954
4.84564	7.73947
4.84111	7.78853
4.8366	7.89757
4.83209	7.9515
4.82759	8.08777
4.8231	8.17988
4.81862	8.1575
4.81415	8.26434
4.80968	8.37173
4.80522	8.49949
4.80077	8.59567
4.79633	8.63359
4.7919	8.69115
4.78747	8.87579
4.78306	9.03506
4.77865	9.08362
4.77425	9.20163
4.76986	9.33789
4.76547	9.53147
4.7611	9.59724
4.75673	9.65552
4.75237	9.80138
4.74802	9.92348
4.74367	10.0187
4.73934	10.1195
4.73501	10.2132
4.73069	10.3451
4.72638	10.4703
4.72207	10.5291
4.71777	10.6891
4.71348	10.8878
4.7092	11.0123
4.70493	11.0881
4.70066	11.1674
4.69641	11.3131
4.69216	11.4485
4.68791	11.5841
4.68368	11.8506
4.67945	12.097
4.67523	12.2413
4.67102	12.4823
4.66682	12.6482
4.66262	12.7492
4.65843	12.9568
4.65425	13.1432
4.65007	13.306
4.64591	13.4552
4.64175	13.6982
4.6376	13.9292
4.63345	14.0358
4.62932	14.2522
4.62519	14.5398
4.62106	14.7734
4.61695	14.9329
4.61284	15.0761
4.60874	15.1981
4.60465	15.3919
4.60056	15.5542
4.59648	15.708
4.59241	15.8658
4.58835	15.9385
4.58429	15.937
4.58024	15.9224
4.5762	15.9537
4.57216	16.0355
4.56814	16.0959
4.56411	16.2133
4.5601	16.3075
4.55609	16.2988
4.55209	16.2332
4.5481	16.2304
4.54411	16.3159
4.54013	16.3765
4.53616	16.3531
4.5322	16.3651
4.52824	16.4573
4.52429	16.4734
4.52034	16.3925
4.51641	16.4145
4.51247	16.4766
4.50855	16.3814
4.50463	16.3274
4.50072	16.4581
4.49682	16.6896
4.49292	16.8934
4.48903	17.0765
4.48515	17.2211
4.48127	17.4023
4.4774	17.6306
4.47354	17.8734
4.46968	18.0451
4.46584	18.1525
4.46199	18.3139
4.45815	18.6093
4.45432	18.897
4.4505	19.0556
4.44668	19.2089
4.44287	19.501
4.43907	19.7548
4.43527	20.0468
4.43148	20.3359
4.4277	20.5067
4.42392	20.7435
4.42015	20.988
4.41638	21.2029
4.41262	21.3692
4.40887	21.6217
4.40513	21.9369
4.40139	22.1969
4.39765	22.395
4.39393	22.6312
4.39021	22.9625
4.38649	23.2423
4.38278	23.5187
4.37908	23.7942
4.37539	24.0361
4.3717	24.2694
4.36801	24.4916
4.36434	24.7447
4.36067	24.9937
4.357	25.1441
4.35335	25.285
4.34969	25.4699
4.34605	25.6265
4.34241	25.8411
4.33877	26.0262
4.33514	26.1295
4.33152	26.2461
4.32791	26.3313
4.3243	26.4862
4.32069	26.6846
4.3171	26.8208
4.31351	27.0074
4.30992	27.1377
4.30634	27.1893
4.30277	27.2601
4.2992	27.3968
4.29564	27.5219
4.29208	27.661
4.28853	27.7836
4.28499	27.8936
4.28145	28.0088
4.27792	28.0749
4.27439	28.109
4.27087	28.1468
4.26735	28.2319
4.26384	28.3002
4.26034	28.2559
4.25684	28.2495
4.25335	28.3565
4.24986	28.518
4.24638	28.6457
4.24291	28.7543
4.23944	28.8762
4.23598	28.9667
4.23252	29.0123
4.22906	29.0742
4.22562	29.0803
4.22218	29.0865
4.21874	29.0676
4.21531	29.0612
4.21189	29.0598
4.20847	29.0974
4.20506	29.1041
4.20165	29.0481
4.19825	28.9871
4.19485	29.0541
4.19146	29.1134
4.18807	29.1897
4.18469	29.2805
4.18132	29.2968
4.17795	29.3327
4.17458	29.3005
4.17123	29.2761
4.16787	29.3627
4.16453	29.4249
4.16118	29.4741
4.15785	29.4859
4.15451	29.4846
4.15119	29.4421
4.14787	29.4595
4.14455	29.4827
4.14124	29.4814
4.13794	29.5133
4.13464	29.4586
4.13134	29.3783
4.12805	29.4046
4.12477	29.4204
4.12149	29.3744
4.11822	29.3334
4.11495	29.3269
4.11168	29.2743
4.10843	29.1817
4.10517	29.1441
4.10192	29.144
4.09868	29.1099
4.09545	29.0375
4.09221	28.9388
4.08899	28.9304
4.08576	28.8634
4.08255	28.7292
4.07933	28.6171
4.07613	28.5743
4.07292	28.5499
4.06973	28.6117
4.06654	28.6129
4.06335	28.5474
4.06017	28.5616
4.05699	28.5292
4.05382	28.4745
4.05065	28.4258
4.04749	28.4107
4.04433	28.4012
4.04118	28.3543
4.03803	28.3346
4.03489	28.3895
4.03175	28.4707
4.02862	28.5045
4.02549	28.6265
4.02237	28.7754
4.01925	28.9626
4.01614	29.1128
4.01303	29.213
4.00993	29.3566
4.00683	29.546
4.00373	29.6811
4.00064	29.7554
3.99756	29.7912
3.99448	29.7456
3.9914	29.6492
3.98833	29.4974
3.98527	29.1958
3.98221	28.8503
3.97915	28.7142
3.9761	28.8383
3.97305	29.131
3.97001	29.4725
3.96697	29.8494
3.96394	30.2344
3.96091	30.4947
3.95789	30.5478
3.95487	30.5137
3.95186	30.5693
3.94885	30.5525
3.94584	30.4836
3.94284	30.4568
3.93984	30.5081
3.93685	30.5768
3.93386	30.4465
3.93088	30.4191
3.9279	30.5476
3.92493	30.6239
3.92196	30.6965
3.919	30.8086
3.91604	30.9127
3.91308	31.0006
3.91013	31.0782
3.90718	31.1655
3.90424	31.227
3.9013	31.1999
3.89837	31.1994
3.89544	31.2316
3.89252	31.2783
3.8896	31.319
3.88668	31.3499
3.88377	31.4139
3.88086	31.4052
3.87796	31.2976
3.87506	31.2552
3.87217	31.1832
3.86928	31.0224
3.86639	30.8584
3.86351	30.7211
3.86064	30.6121
3.85776	30.421
3.8549	30.268
3.85203	30.1285
3.84917	29.9283
3.84631	29.6501
3.84346	29.47
3.84062	29.3391
3.83777	29.1227
3.83494	28.9348
3.8321	28.8042
3.82927	28.584
3.82644	28.3261
3.82362	28.171
3.82081	28.0603
3.81799	27.9573
3.81518	27.7856
3.81238	27.5939
3.80958	27.4991
3.80678	27.448
3.80399	27.3494
3.8012	27.2371
3.79841	27.2574
3.79563	27.2038
3.79286	27.1358
3.79008	27.1266
3.78731	27.1788
3.78455	27.2489
3.78179	27.1722
3.77903	27.1293
3.77628	27.2504
3.77353	27.3401
3.77079	27.3327
3.76805	27.3768
3.76531	27.5432
3.76258	27.6572
3.75985	27.7096
3.75713	27.7719
3.7544	27.7866
3.75169	27.8778
3.74898	27.9924
3.74627	28.0219
3.74356	28.0589
3.74086	28.0823
3.73816	28.0571
3.73547	28.0377
3.73278	28.0354
3.7301	27.9889
3.72741	28.033
3.72474	28.0921
3.72206	28.0545
3.71939	27.9887
3.71673	27.9274
3.71406	27.7945
3.71141	27.6555
3.70875	27.5526
3.7061	27.4603
3.70345	27.3593
3.70081	27.1982
3.69817	27.0678
3.69553	27.0156
3.6929	26.8948
3.69027	26.6986
3.68765	26.5595
3.68503	26.3961
3.68241	26.2633
3.6798	26.0612
3.67719	25.8508
3.67458	25.772
3.67198	25.665
3.66938	25.5662
3.66678	25.4916
3.66419	25.4524
3.66161	25.3442
3.65902	25.295
3.65644	25.292
3.65387	25.284
3.65129	25.251
3.64872	25.2455
3.64616	25.2697
3.64359	25.2584
3.64103	25.2903
3.63848	25.3899
3.63593	25.489
3.63338	25.6432
3.63084	25.7271
3.6283	25.7414
3.62576	25.7371
3.62322	25.8294
3.62069	25.9482
3.61817	25.9796
3.61564	26.0351
3.61312	26.1631
3.61061	26.1834
3.6081	26.1675
3.60559	26.1914
3.60308	26.3
3.60058	26.3028
3.59808	26.2344
3.59558	26.2306
3.59309	26.2356
3.59061	26.2375
3.58812	26.206
3.58564	26.1346
3.58316	26.0961
3.58069	26.0797
3.57822	26.0484
3.57575	25.921
3.57328	25.8452
3.57082	25.826
3.56836	25.7431
3.56591	25.6089
3.56346	25.5931
3.56101	25.5775
3.55857	25.4767
3.55613	25.3834
3.55369	25.3521
3.55126	25.3025
3.54883	25.2487
3.5464	25.178
3.54397	25.0619
3.54155	24.9177
3.53914	24.8663
3.53672	24.8261
3.53431	24.7635
3.5319	24.6545
3.5295	24.5876
3.5271	24.637
3.5247	24.6238
3.52231	24.5917
3.51991	24.6409
3.51753	24.7096
3.51514	24.7148
3.51276	24.7166
3.51038	24.6108
3.50801	24.4607
3.50563	24.4527
3.50327	24.5069
3.5009	24.4819
3.49854	24.4327
3.49618	24.3517
3.49382	24.231
3.49147	24.136
3.48912	24.1417
3.48677	24.0533
3.48443	23.9423
3.48209	23.8799
3.47975	23.6943
3.47742	23.6604
3.47509	23.6787
3.47276	23.5251
3.47044	23.3754
3.46812	23.3077
3.4658	23.2047
3.46348	23.0139
3.46117	22.8099
3.45886	22.715
3.45656	22.6511
3.45425	22.5668
3.45195	22.4268
3.44966	22.3706
3.44736	22.3181
3.44507	22.2091
3.44279	22.1853
3.4405	22.1808
3.43822	22.1748
3.43594	22.115
3.43367	22.1645
3.43139	22.2768
3.42912	22.2395
3.42686	22.173
3.42459	22.2006
3.42233	22.2175
3.42007	22.2237
3.41782	22.1462
3.41557	22.0545
3.41332	22.0537
3.41108	21.9873
3.40883	21.8395
3.40659	21.7533
3.40435	21.6855
3.40212	21.5004
3.39989	21.2538
3.39766	20.9692
3.39544	20.7399
3.39322	20.5523
3.391	20.351
3.38878	20.1105
3.38657	19.7862
3.38436	19.4226
3.38215	19.1058
3.37994	18.7657
3.37774	18.457
3.37554	18.2513
3.37335	17.9627
3.37115	17.6526
3.36896	17.377
3.36678	17.1047
3.36459	16.935
3.36241	16.8077
3.36023	16.6609
3.35805	16.5193
3.35588	16.5028
3.35371	16.4218
3.35154	16.3123
3.34938	16.3897
3.34721	16.5989
3.34505	16.6477
3.3429	16.6418
3.34074	16.7324
3.33859	16.7277
3.33644	16.76
3.3343	16.7957
3.33215	16.8628
3.33001	16.9118
3.32788	16.8499
3.32574	16.893
3.32361	16.9692
3.32148	17.0377
3.31936	17
3.31723	17.0239
3.31511	17.1183
3.31299	17.1786
3.31088	17.1324
3.30876	17.1863
3.30665	17.1918
3.30455	17.1824
3.30244	17.1042
3.30034	17.0711
3.29824	16.9813
3.29614	16.9091
3.29405	16.8533
3.29196	16.7525
3.28987	16.6298
3.28778	16.4516
3.2857	16.2831
3.28362	16.2384
3.28154	16.0669
3.27946	15.8663
3.27739	15.7156
3.27532	15.5523
3.27325	15.4442
3.27119	15.3343
3.26913	15.1717
3.26707	14.9498
3.26501	14.7338
3.26295	14.5239
3.2609	14.4201
3.25885	14.3302
3.2568	14.0585
3.25476	13.8675
3.25272	13.8553
3.25068	13.7112
3.24864	13.6383
3.24661	13.5224
3.24458	13.2759
3.24255	13.1851
3.24052	13.1291
3.2385	13.0239
3.23648	13.001
3.23446	12.8036
3.23244	12.538
3.23043	12.4879
3.22841	12.5155
3.2264	12.5423
3.2244	12.4818
3.22239	12.4196
3.22039	12.3443
3.21839	12.2094
3.2164	12.1569
3.2144	12.1218
3.21241	12.0085
3.21042	11.9849
3.20844	12.0852
3.20645	12.1532
3.20447	12.0737
3.20249	12.0295
3.20051	12.0714
3.19854	12.0126
3.19657	11.935
3.1946	11.8991
3.19263	11.8556
3.19067	11.7483
3.1887	11.6837
3.18674	11.7229
3.18479	11.7288
3.18283	11.7039
3.18088	11.5596
3.17893	11.3846
3.17698	11.3414
3.17504	11.2771
3.17309	11.2282
3.17115	11.2513
3.16921	11.178
3.16728	11.1536
3.16534	11.1216
3.16341	10.9926
3.16148	11.0454
3.15956	11.2231
3.15763	11.1783
3.15571	11.1847
3.15379	11.1697
3.15187	11.0669
3.14996	11.0543
3.14805	11.0585
3.14614	11.0601
3.14423	11.1312
3.14232	11.1623
3.14042	11.0361
3.13852	10.9359
3.13662	10.9902
3.13472	11.0399
3.13283	10.9315
3.13094	10.8623
3.12905	10.8312
3.12716	10.746
3.12528	10.804
3.12339	10.7192
3.12151	10.581
3.11964	10.5037
3.11776	10.4087
3.11589	10.3624
3.11401	10.2675
3.11214	10.1786
3.11028	10.0844
3.10841	10.0101
3.10655	9.88222
3.10469	9.67906
3.10283	9.49572
3.10098	9.40734
3.09912	9.32759
3.09727	9.18037
3.09542	9.0454
3.09358	9.00777
3.09173	8.95657
3.08989	8.81682
3.08805	8.62409
3.08621	8.52007
3.08437	8.42621
3.08254	8.36703
3.08071	8.41147
3.07888	8.288
3.07705	8.25178
3.07523	8.31498
3.0734	8.26563
3.07158	8.20554
3.06977	8.08927
3.06795	8.11478
3.06613	8.1137
3.06432	7.9441
3.06251	7.87459
3.0607	7.89967
3.0589	7.90891
3.0571	7.83235
3.05529	7.81706
3.05349	7.9181
3.0517	7.92578
3.0499	7.90782
3.04811	7.91572
3.04632	8.03753
3.04453	7.93859
3.04274	7.84816
3.04096	7.97317
3.03918	8.12888
3.0374	8.06448
3.03562	7.93963
3.03384	7.92058
3.03207	7.98681
3.03029	8.10667
3.02852	8.06751
3.02676	8.09451
3.02499	8.05553
3.02323	8.06696
3.02146	8.13904
3.0197	7.98693
3.01795	7.86147
3.01619	7.91652
3.01444	7.97824
3.01269	7.92772
3.01094	7.83228
3.00919	7.75229
3.00744	7.7262
3.0057	7.66203
3.00396	7.60089
3.00222	7.56576
3.00048	7.51874
2.99875	7.38915
2.99701	7.27829
2.99528	7.25355
2.99355	7.18886
2.99183	7.1355
2.9901	7.07348
2.98838	6.9157
2.98666	6.84765
2.98494	6.86531
2.98322	6.85859
2.9815	6.77959
2.97979	6.83922
2.97808	6.9029
2.97637	6.73804
2.97466	6.60948
2.97295	6.62526
2.97125	6.62456
2.96955	6.58869
2.96785	6.64678
2.96615	6.70591
2.96446	6.63263
2.96276	6.64971
2.96107	6.61477
2.95938	6.50062
2.95769	6.55475
2.95601	6.57201
2.95432	6.40803
2.95264	6.29205
2.95096	6.06707
2.94928	5.76887
2.9476	5.59636
2.94593	5.4748
2.94425	5.29531
2.94258	5.22068
2.94092	5.27888
2.93925	5.40721
2.93758	5.51839
2.93592	5.56785
2.93426	5.59958
2.9326	5.66027
2.93094	5.79711
2.92928	5.92903
2.92763	6.06417
2.92598	6.07813
2.92433	6.11699
2.92268	6.22086
2.92103	6.41308
2.91939	6.45224
2.91775	6.47314
2.9161	6.47186
2.91447	6.36018
2.91283	6.41274
2.91119	6.54201
2.90956	6.64007
2.90793	6.73696
2.9063	6.79748
2.90467	6.95198
2.90304	7.04198
2.90142	7.007
2.89979	6.94136
2.89817	6.93984
2.89656	6.82029
2.89494	6.86923
2.89332	7.11173
2.89171	7.16023
2.8901	7.09094
2.88849	7.11649
2.88688	7.11984
2.88527	7.14076
2.88367	7.16886
2.88206	7.11966
2.88046	7.07779
2.87886	7.08264
2.87727	7.07005
2.87567	7.05378
2.87408	7.06874
2.87248	7.16132
2.87089	7.18623
2.8693	7.1241
2.86772	7.17927
2.86613	7.28591
2.86455	7.3756
2.86297	7.49089
2.86139	7.43069
2.85981	7.37106
2.85823	7.39019
2.85666	7.42137
2.85508	7.49945
2.85351	7.57476
2.85194	7.58844
2.85038	7.50496
2.84881	7.39663
2.84724	7.60483
2.84568	7.87625
2.84412	7.99384
2.84256	8.06504
2.841	8.13322
2.83945	8.18365
2.83789	8.20838
2.83634	8.29616
2.83479	8.43865
2.83324	8.61989
2.83169	8.70658
2.83015	8.76659
2.82861	8.94338
2.82706	8.99233
2.82552	9.02037
2.82398	9.12318
2.82245	9.17674
2.82091	9.29091
2.81938	9.42114
2.81784	9.4869
2.81631	9.56377
2.81479	9.65238
2.81326	9.74164
2.81173	9.79618
2.81021	9.93379
2.80869	10.0301
2.80716	9.9588
2.80565	9.86487
2.80413	9.98327
2.80261	10.1352
2.8011	10.1122
2.79959	10.0331
2.79808	10.0295
2.79657	10.0151
2.79506	9.9062
2.79355	9.93899
2.79205	10.0549
2.79055	9.95947
2.78904	9.89263
2.78754	10.0174
2.78605	10.0307
2.78455	9.83892
2.78306	9.84216
2.78156	10.1781
2.78007	10.309
2.77858	10.2035
2.77709	10.2267
2.77561	10.341
2.77412	10.7377
2.77264	10.882
2.77116	10.9336
2.76968	11.0121
2.7682	11.1196
2.76672	11.6209
2.76524	11.7898
2.76377	11.8179
2.7623	11.8325
2.76083	11.7286
2.75936	11.8552
2.75789	12.2402
2.75642	12.9164
2.75496	13.1043
2.7535	12.7587
2.75203	12.7156
2.75057	12.7585
2.74912	12.8021
2.74766	12.9136
2.7462	13.0684
2.74475	13.1478
2.7433	13.2557
2.74185	13.6173
2.7404	14.0648
2.73895	14.1515
2.7375	13.9623
2.73606	13.8656
2.73462	13.982
2.73318	14.0198
2.73174	14.0756
2.7303	14.3895
2.72886	14.7697
2.72742	14.9337
2.72599	15.5272
2.72456	16.289
2.72313	16.2644
2.7217	16.6577
2.72027	17.3287
2.71884	17.2114
2.71742	17.4115
2.71599	17.8398
2.71457	18.1781
2.71315	18.5503
2.71173	19.4306
2.71032	20.1696
2.7089	20.4054
2.70748	20.515
2.70607	20.5642
2.70466	20.8222
2.70325	21.197
2.70184	21.6799
2.70043	21.861
2.69903	21.9958
2.69762	22.3216
2.69622	22.6844
2.69482	23.1399
2.69342	23.3471
2.69202	23.0808
2.69062	23.0725
2.68923	23.3139
2.68783	23.5329
2.68644	23.6433
2.68505	23.7696
2.68366	23.9205
2.68227	23.7604
2.68089	23.8555
2.6795	24.3976
2.67812	24.5229
2.67673	24.663
2.67535	24.2967
2.67397	23.6933
2.6726	23.5512
2.67122	24.301
2.66984	24.3121
2.66847	23.7368
2.6671	24.2332
2.66572	24.288
2.66435	23.7216
2.66299	23.0589
2.66162	23.0977
2.66025	23.3737
2.65889	23.5411
2.65753	23.7251
2.65616	24.3512
2.65481	24.7066
2.65345	25.2321
2.65209	25.7812
2.65073	25.9218
2.64938	26.1736
2.64803	26.5974
2.64667	27.0665
2.64532	27.506
2.64397	27.6311
2.64263	27.8141
2.64128	28.0055
2.63994	28.148
2.63859	28.2178
2.63725	28.41
2.63591	28.6403
2.63457	28.9205
2.63323	28.9856
2.6319	29.2652
2.63056	29.8342
2.62923	29.4477
2.62789	29.2249
2.62656	29.5659
2.62523	29.1557
2.6239	29.0355
2.62258	29.1998
2.62125	29.8106
2.61993	29.9581
2.6186	29.7254
2.61728	30.2035
2.61596	29.9541
2.61464	29.4798
2.61332	29.6184
2.61201	29.5477
2.61069	29.5595
2.60938	29.6967
2.60807	29.7316
2.60675	30.0017
2.60544	30.3097
2.60414	29.8306
2.60283	29.5236
2.60152	29.3913
2.60022	29.204
2.59891	29.0162
2.59761	29.1273
2.59631	29.8676
2.59501	30.9272
2.59371	30.0983
2.59242	28.9168
2.59112	28.6536
2.58983	28.7207
2.58853	28.793
2.58724	28.9137
2.58595	28.6573
2.58466	28.9991
2.58338	29.1065
2.58209	28.6736
2.5808	28.7035
2.57952	28.6705
2.57824	28.8133
2.57695	28.8433
2.57567	28.5227
2.5744	28.6179
2.57312	28.7366
2.57184	28.2825
2.57057	28.3726
2.56929	28.34
2.56802	27.8638
2.56675	27.5613
2.56548	27.5913
2.56421	27.6734
2.56294	27.5292
2.56168	27.3622
2.56041	27.0364
2.55915	26.6239
2.55789	26.3324
2.55662	26.069
2.55536	25.8157
2.5541	25.8074
2.55285	25.9671
2.55159	25.7824
2.55034	25.4255
2.54908	25.2291
2.54783	25.2368
2.54658	25.1828
2.54533	25.0301
2.54408	25.0186
2.54283	24.9529
2.54159	24.669
2.54034	24.4744
2.5391	24.3591
2.53785	24.2204
2.53661	24.3011
2.53537	24.2798
2.53413	24.1308
2.53289	23.9123
2.53166	23.8274
2.53042	23.7839
2.52919	23.6471
2.52795	23.6216
2.52672	23.668
2.52549	23.6576
2.52426	23.5875
2.52303	23.4794
2.52181	23.5245
2.52058	23.4701
2.51936	23.3365
2.51813	23.3193
2.51691	23.3036
2.51569	23.2864
2.51447	23.2917
2.51325	23.3761
2.51203	23.2709
2.51082	23.11
2.5096	23.1361
2.50839	23.0684
2.50717	23.0133
2.50596	22.9336
2.50475	22.8066
2.50354	22.7939
2.50233	22.661
2.50113	22.5092
2.49992	22.5225
2.49872	22.4507
2.49751	22.3324
2.49631	22.2481
2.49511	22.2035
2.49391	22.2227
2.49271	22.2193
2.49151	22.2142
2.49031	22.2817
2.48912	22.2259
2.48792	22.1552
2.48673	22.073
2.48554	22.0415
2.48435	22.1714
2.48316	22.2231
2.48197	22.0716
2.48078	22.0088
2.4796	22.0834
2.47841	22.1043
2.47723	22.1138
2.47604	22.0053
2.47486	21.9956
2.47368	22.0279
2.4725	21.9614
2.47132	21.7752
2.47014	21.657
2.46897	21.7825
2.46779	21.6949
2.46662	21.6228
2.46545	21.5036
2.46427	21.347
2.4631	21.2941
2.46193	21.204
2.46077	21.1098
2.4596	20.9444
2.45843	20.9517
2.45727	20.8856
2.4561	20.6726
2.45494	20.6584
2.45378	20.6811
2.45262	20.6064
2.45146	20.3805
2.4503	20.2875
2.44914	20.2541
2.44799	20.1033
2.44683	19.9236
2.44568	19.7863
2.44452	19.863
2.44337	19.8403
2.44222	19.6681
2.44107	19.5125
2.43992	19.4206
2.43877	19.2883
2.43763	19.0885
2.43648	18.9914
2.43534	18.9752
2.43419	19.0379
2.43305	19.0759
2.43191	18.9728
2.43077	18.8344
2.42963	18.8824
2.42849	18.775
2.42736	18.457
2.42622	18.325
2.42509	18.2476
2.42395	18.1723
2.42282	18.0129
2.42169	17.7995
2.42056	17.6477
2.41943	17.6811
2.4183	17.7533
2.41717	17.5975
2.41605	17.3685
2.41492	17.2271
2.4138	17.0214
2.41267	16.9011
2.41155	16.8587
2.41043	16.8246
2.40931	16.8187
2.40819	16.7702
2.40707	16.5299
2.40595	16.2783
2.40484	16.0685
2.40372	16.0156
2.40261	16.0205
2.4015	16.0814
2.40039	15.9135
2.39928	15.6883
2.39817	15.5489
2.39706	15.3661
2.39595	15.2726
2.39484	15.276
2.39374	15.056
2.39263	14.9418
2.39153	15.0707
2.39043	14.9197
2.38932	14.4684
2.38822	14.1998
2.38712	14.1109
2.38603	13.976
2.38493	13.713
2.38383	13.3682
2.38274	13.0061
2.38164	12.7189
2.38055	12.6663
2.37946	12.4086
2.37836	11.973
2.37727	11.6851
2.37618	11.3361
2.3751	11.2791
2.37401	11.1844
2.37292	10.8057
2.37184	10.5156
2.37075	10.4799
2.36967	10.4647
2.36859	10.4457
2.3675	10.573
2.36642	10.5995
2.36534	10.681
2.36427	10.9157
2.36319	11.0024
2.36211	11.0319
2.36104	11.0505
2.35996	11.0177
2.35889	11.0978
2.35781	11.1257
2.35674	11.2822
2.35567	11.3438
2.3546	11.2218
2.35353	11.1487
2.35247	11.1256
2.3514	10.8968
2.35033	10.7082
2.34927	10.6655
2.3482	10.7165
2.34714	10.6998
2.34608	10.5722
2.34502	10.3836
2.34396	10.209
2.3429	10.2954
2.34184	10.3515
2.34078	10.2415
2.33973	10.0244
2.33867	9.77807
2.33762	9.55458
2.33656	9.49332
2.33551	9.27553
2.33446	8.78358
2.33341	8.50511
2.33236	8.5635
2.33131	8.54302
2.33026	8.19665
2.32922	7.9006
2.32817	7.84971
2.32712	7.73265
2.32608	7.67346
2.32504	7.41739
2.324	7.27389
2.32295	7.3717
2.32191	7.42868
2.32087	7.45426
2.31984	7.55237
2.3188	7.6548
2.31776	7.7585
2.31673	8.01318
2.31569	8.0851
2.31466	7.89222
2.31362	7.94969
2.31259	8.01255
2.31156	7.88739
2.31053	7.96802
2.3095	7.93592
2.30847	7.81437
2.30745	7.79486
2.30642	7.76385
2.3054	7.70156
2.30437	7.70075
2.30335	7.78917
2.30232	7.79154
2.3013	7.90526
2.30028	7.99671
2.29926	7.93844
2.29824	7.87075
2.29722	7.92489
2.29621	8.19717
2.29519	8.34325
2.29417	8.12709
2.29316	8.14734
2.29215	8.45617
2.29113	8.51763
2.29012	8.56788
2.28911	8.60785
2.2881	8.55873
2.28709	8.64874
2.28608	8.69219
2.28507	8.59856
2.28407	8.5076
2.28306	8.67143
2.28206	8.78097
2.28105	8.7645
2.28005	8.81314
2.27905	8.83768
2.27805	8.68237
2.27705	8.68048
2.27605	8.79246
2.27505	9.00726
2.27405	8.96471
2.27305	8.8611
2.27206	8.82966
2.27106	8.80042
2.27007	8.83751
2.26907	8.98287
2.26808	9.00473
2.26709	9.0245
2.2661	8.93937
2.26511	8.9368
2.26412	9.06935
2.26313	9.02845
2.26214	8.99846
2.26116	9.2096
2.26017	9.38106
2.25919	9.46351
2.2582	9.389
2.25722	9.21564
2.25624	9.27443
2.25526	9.49784
2.25428	9.48434
2.2533	9.15871
2.25232	9.22621
2.25134	9.48401
2.25036	9.54681
2.24939	9.51936
2.24841	9.37965
2.24744	9.51346
2.24646	9.62958
2.24549	9.6398
2.24452	9.56921
2.24355	9.46661
2.24257	9.44675
2.24161	9.48801
2.24064	9.60208
2.23967	9.59733
2.2387	9.39414
2.23774	9.25435
2.23677	9.33868
2.23581	9.43753
2.23484	9.42655
2.23388	9.38764
2.23292	9.32777
2.23196	9.2592
2.231	9.29708
2.23004	9.30876
2.22908	9.39758
2.22812	9.33779
2.22716	9.26125
2.22621	9.32413
2.22525	9.26102
2.2243	9.37559
2.22334	9.45501
2.22239	9.41502
2.22144	9.45591
2.22049	9.44154
2.21953	9.41115
2.21859	9.36422
2.21764	9.21791
2.21669	9.18852
2.21574	9.14095
2.21479	9.09268
2.21385	9.09934
2.2129	9.28783
2.21196	9.29143
2.21102	9.04926
2.21007	9.16796
2.20913	9.33455
2.20819	9.31863
2.20725	9.1755
2.20631	9.05772
2.20537	9.21749
2.20444	9.36982
2.2035	9.21733
2.20256	9.13765
2.20163	9.0933
2.20069	9.2725
2.19976	9.27556
2.19883	9.06688
2.19789	8.85721
2.19696	8.934
2.19603	9.04633
2.1951	9.06027
2.19417	8.95752
2.19325	8.8796
2.19232	8.94346
2.19139	8.96507
2.19047	9.0921
2.18954	9.16056
2.18862	8.9025
2.18769	8.68914
2.18677	8.80837
2.18585	8.89723
2.18493	8.98881
2.18401	8.81256
2.18309	8.77368
2.18217	8.9404
2.18125	8.84441
2.18033	8.73276
2.17942	8.80648
2.1785	8.85511
2.17759	8.93239
2.17667	8.95638
2.17576	8.98084
2.17485	8.99146
2.17393	8.87224
2.17302	8.98392
2.17211	8.96214
2.1712	8.94841
2.17029	8.82873
2.16939	8.68109
2.16848	8.66889
2.16757	8.71769
2.16667	8.85579
2.16576	8.70724
2.16486	8.5895
2.16395	8.86586
2.16305	8.84279
2.16215	8.6178
2.16125	8.54208
2.16035	8.65308
2.15945	8.70935
2.15855	8.63009
2.15765	8.68954
2.15675	8.93342
2.15586	9.04472
2.15496	8.90628
2.15406	8.73292
2.15317	8.76236
2.15228	8.80841
2.15138	8.85184
2.15049	8.65373
2.1496	8.42331
2.14871	8.54579
2.14782	8.7272
2.14693	8.76579
2.14604	8.69088
2.14515	8.6391
2.14427	8.65813
2.14338	8.68241
2.14249	8.9201
2.14161	8.72544
2.14072	8.49058
2.13984	8.79825
2.13896	8.87757
2.13808	8.58692
2.13719	8.3537
2.13631	8.36533
2.13543	8.42574
2.13455	8.5055
2.13368	8.56574
2.1328	8.6587
2.13192	8.48728
2.13105	8.54653
2.13017	8.58741
2.1293	8.39483
2.12842	8.40728
2.12755	8.3936
2.12668	8.39245
2.1258	8.42951
2.12493	8.59461
2.12406	8.6228
2.12319	8.62781
2.12232	8.55135
2.12145	8.36787
2.12059	8.434
2.11972	8.49381
2.11885	8.52477
2.11799	8.65707
2.11712	8.64179
2.11626	8.43182
2.1154	8.35214
2.11453	8.57578
2.11367	8.64314
2.11281	8.5536
2.11195	8.44644
2.11109	8.32991
2.11023	8.267
2.10937	8.27739
2.10851	8.2517
2.10766	8.20791
2.1068	8.20638
2.10594	8.1291
2.10509	8.10518
2.10423	8.26339
2.10338	8.61674
2.10253	8.9274
2.10168	8.84322
2.10082	8.54716
2.09997	8.35954
2.09912	8.4062
2.09827	8.34393
2.09742	8.47712
2.09658	8.59725
2.09573	8.68513
2.09488	8.58623
2.09404	8.42982
2.09319	8.45439
2.09235	8.45442
2.0915	8.41486
2.09066	8.4465
2.08982	8.61139
2.08897	8.48459
2.08813	8.18183
2.08729	8.22217
2.08645	8.59231
2.08561	8.74404
2.08477	8.497
2.08394	8.37916
2.0831	8.27128
2.08226	8.27937
2.08143	8.36424
2.08059	8.39807
2.07976	8.48128
2.07892	8.50855
2.07809	8.39838
2.07726	8.6712
2.07643	8.61512
2.07559	8.17887
2.07476	8.06957
2.07393	8.08682
2.0731	8.29587
2.07228	8.40065
2.07145	8.52065
2.07062	8.49544
2.06979	8.63491
2.06897	8.7552
2.06814	8.17046
2.06732	8.30485
2.06649	8.63946
2.06567	8.33299
2.06485	8.14778
2.06403	8.32792
2.0632	8.48058
2.06238	8.50358
2.06156	8.43765
2.06074	8.4456
2.05993	8.45743
2.05911	8.54426
2.05829	8.51437
2.05747	8.35326
2.05666	8.4177
2.05584	8.42978
2.05503	8.42932
2.05421	8.56923
2.0534	8.4894
2.05259	8.18906
2.05177	8.30844
2.05096	8.21492
2.05015	8.26625
2.04934	8.66964
2.04853	8.7588
2.04772	8.46871
2.04691	8.35932
2.04611	8.49294
2.0453	8.67812
2.04449	8.69714
2.04369	8.89395
2.04288	8.95034
2.04208	8.70304
2.04127	8.08655
2.04047	8.26341
2.03967	8.82386
2.03886	8.8656
2.03806	8.67392
2.03726	8.3691
2.03646	8.41516
2.03566	8.49954
2.03486	8.60077
2.03407	8.59173
2.03327	8.32586
2.03247	8.48332
2.03167	8.75222
2.03088	8.70702
2.03008	8.53875
2.02929	8.48226
2.0285	8.35728
2.0277	8.50788
2.02691	8.70752
2.02612	8.665
2.02533	8.59798
2.02453	8.60107
2.02374	8.59405
2.02295	8.60117
2.02217	8.54977
2.02138	8.71465
2.02059	8.61445
2.0198	8.43388
2.01902	8.54235
2.01823	8.56298
2.01744	8.46719
2.01666	8.46079
2.01588	8.53966
2.01509	8.59701
2.01431	8.648
2.01353	8.68754
2.01275	8.62818
2.01196	8.87567
2.01118	8.96673
2.0104	8.70254
2.00963	8.50595
2.00885	8.4579
2.00807	8.54226
2.00729	8.63909
2.00651	8.65504
2.00574	8.78327
2.00496	8.87444
2.00419	8.80291
2.00341	8.82
2.00264	8.85221
2.00187	8.62867
2.00109	8.63391
2.00032	8.46626
