Name: Tschermigite (NH_4)Al(SO_4)_2.12H_2O
Type: Mineral
Class: Sulfates
Subclass: 
Particle Size: 0-45um
Sample No.: SO-6A
Owner: JPL
Wavelength range: IR
Origin: USA, Nevada, Esmeralda County, Silver Peak
Collected by Burminco
Description: 





Measurement: Hemispherical reflectance
First Column: X
Second Column: Y
X Units:  Wavelength (micrometers)
Y Units:  Reflectance (percent)
First X Value: 15.3853
Last X Value: 2.00032
Number of X Values: 2256
Additional information: so06aa.txt
 
15.3853	0.853571
15.3397	0.733567
15.2945	0.864906
15.2495	1.09412
15.2048	1.15963
15.1603	1.19798
15.1161	1.01879
15.0722	1.03412
15.0285	1.32433
14.9851	1.32009
14.9419	1.10015
14.8989	1.10878
14.8563	1.19305
14.8138	1.17215
14.7716	1.0744
14.7296	0.90254
14.6879	0.930062
14.6464	1.16347
14.6052	1.19083
14.5641	1.06249
14.5233	1.05459
14.4828	0.91508
14.4424	0.858814
14.4023	1.11039
14.3624	1.15682
14.3227	1.04885
14.2833	0.79137
14.244	0.850569
14.205	0.936772
14.1662	0.907938
14.1276	0.908179
14.0892	0.89877
14.051	0.715844
14.0131	0.714673
13.9753	0.880642
13.9377	0.885044
13.9004	0.887801
13.8632	0.917816
13.8262	0.779109
13.7895	0.725023
13.7529	0.789772
13.7165	0.891018
13.6803	0.773313
13.6443	0.714666
13.6085	0.743457
13.5729	0.743075
13.5374	0.547403
13.5022	0.555917
13.4671	0.575954
13.4322	0.576153
13.3975	0.567566
13.363	0.697798
13.3286	0.664671
13.2944	0.700159
13.2604	0.883877
13.2266	0.821586
13.193	0.686403
13.1595	0.71345
13.1262	0.843487
13.093	0.923738
13.06	0.742134
13.0272	0.675734
12.9946	0.732453
12.9621	0.79269
12.9298	0.749727
12.8976	0.800038
12.8656	0.843556
12.8337	0.729734
12.8021	0.733537
12.7705	0.861531
12.7391	0.847087
12.7079	0.912173
12.6769	0.98864
12.6459	1.05876
12.6152	1.16382
12.5845	1.09027
12.5541	0.983414
12.5238	0.890495
12.4936	0.976644
12.4635	1.20121
12.4337	1.15304
12.4039	1.04792
12.3743	1.03469
12.3448	1.13046
12.3155	1.22717
12.2863	1.21913
12.2573	1.26665
12.2284	1.22514
12.1996	1.24043
12.171	1.29281
12.1425	1.20478
12.1141	1.11066
12.0859	1.16636
12.0578	1.39675
12.0298	1.41701
12.0019	1.34312
11.9742	1.25999
11.9466	1.30002
11.9192	1.39389
11.8918	1.42454
11.8646	1.30877
11.8375	1.14047
11.8106	1.14062
11.7837	1.33748
11.757	1.47517
11.7304	1.3587
11.7039	1.24472
11.6776	1.26591
11.6513	1.31145
11.6252	1.26066
11.5992	1.28138
11.5733	1.34545
11.5475	1.4202
11.5219	1.49074
11.4963	1.38569
11.4709	1.22042
11.4455	1.24096
11.4203	1.2849
11.3952	1.25573
11.3702	1.18391
11.3454	1.17595
11.3206	1.27115
11.2959	1.30655
11.2714	1.2822
11.2469	1.27028
11.2226	1.09631
11.1983	1.06398
11.1742	1.0692
11.1502	1.14311
11.1263	1.2619
11.1024	1.20575
11.0787	1.11701
11.0551	1.14405
11.0316	1.22098
11.0081	1.18293
10.9848	1.1584
10.9616	1.08439
10.9385	1.03257
10.9154	1.02553
10.8925	1.07998
10.8697	1.05439
10.8469	1.03254
10.8243	1.05021
10.8017	1.09817
10.7793	1.10551
10.7569	1.0718
10.7346	1.08513
10.7125	1.08695
10.6904	1.08492
10.6684	1.08828
10.6465	1.03822
10.6247	1.09314
10.6029	1.01424
10.5813	0.948576
10.5597	1.04401
10.5383	1.06932
10.5169	1.03812
10.4956	1.15973
10.4744	1.1611
10.4533	1.125
10.4323	1.10491
10.4113	1.07725
10.3904	1.10632
10.3697	1.17946
10.349	1.23044
10.3284	1.25224
10.3078	1.19134
10.2874	1.26547
10.267	1.40169
10.2467	1.34659
10.2265	1.24478
10.2064	1.22831
10.1863	1.35318
10.1663	1.3423
10.1464	1.3427
10.1266	1.50216
10.1069	1.60004
10.0872	1.52904
10.0676	1.4979
10.0481	1.61905
10.0287	1.65389
10.0093	1.64433
9.99005	1.6944
9.97084	1.69441
9.95169	1.71412
9.93263	1.79535
9.91364	1.81449
9.89472	1.86581
9.87587	1.94668
9.8571	1.92707
9.83839	1.84912
9.81976	1.89273
9.80119	1.98779
9.78271	1.88111
9.76428	1.81798
9.74592	1.89743
9.72764	1.93135
9.70943	2.01218
9.69128	2.08172
9.6732	2.01097
9.65518	1.90538
9.63724	1.83558
9.61935	1.89695
9.60155	1.99405
9.5838	2.04684
9.56611	2.19673
9.5485	2.19554
9.53094	1.97673
9.51345	2.06486
9.49604	2.23803
9.47867	2.29991
9.46137	2.24068
9.44414	2.20432
9.42697	2.21773
9.40986	2.14407
9.39281	2.21641
9.37583	2.32804
9.35891	2.35033
9.34204	2.23479
9.32524	2.22918
9.3085	2.35677
9.29182	2.52072
9.27519	2.57503
9.25863	2.59521
9.24213	2.90289
9.22568	3.11403
9.2093	3.1951
9.19297	3.50325
9.17669	3.72694
9.16048	3.87994
9.14433	4.12521
9.12823	4.38398
9.11218	4.57327
9.0962	4.77926
9.08027	4.96369
9.06439	4.88358
9.04858	4.90188
9.03281	4.98
9.0171	4.95849
9.00145	4.92563
8.98585	4.82198
8.9703	4.69061
8.9548	4.59152
8.93937	4.40109
8.92398	4.40499
8.90865	4.44985
8.89337	4.20801
8.87814	4.0567
8.86296	3.90893
8.84784	3.49443
8.83277	3.24819
8.81774	2.99091
8.80277	2.57904
8.78786	2.13396
8.77298	1.76236
8.75816	1.57481
8.7434	1.3539
8.72868	1.03918
8.714	0.797364
8.69938	0.613992
8.68481	0.354799
8.67029	0.182041
8.65581	0.148284
8.64139	0.177492
8.62701	0.213419
8.61268	0.224703
8.5984	0.211312
8.58416	0.131282
8.56997	0.117077
8.55583	0.0654774
8.54174	0.160501
8.52769	0.308329
8.51368	0.379949
8.49973	0.372227
8.48582	0.239215
8.47195	0.327488
8.45813	0.396089
8.44436	0.266569
8.43062	0.277042
8.41693	0.376334
8.4033	0.362199
8.3897	0.380344
8.37614	0.376352
8.36264	0.285612
8.34917	0.153785
8.33574	0.0937882
8.32236	0.109941
8.30903	0.143909
8.29573	0.115807
8.28248	0.17806
8.26927	0.213022
8.2561	0.215705
8.24298	0.260355
8.2299	0.487252
8.21685	0.455711
8.20385	0.345951
8.19089	0.334707
8.17797	0.324448
8.16509	0.406414
8.15225	0.509173
8.13946	0.594915
8.1267	0.504026
8.11398	0.4358
8.10131	0.610047
8.08867	0.756809
8.07606	0.762097
8.0635	0.73875
8.05099	0.818601
8.0385	0.940987
8.02606	0.991678
8.01366	1.06948
8.00129	1.14971
7.98896	1.067
7.97667	0.981891
7.96442	1.05879
7.9522	1.09039
7.94002	1.14085
7.92788	1.24499
7.91578	1.22321
7.90371	1.16064
7.89168	1.20874
7.87969	1.22538
7.86773	1.29786
7.85581	1.39456
7.84392	1.43213
7.83207	1.3718
7.82026	1.42735
7.80849	1.47254
7.79674	1.50041
7.78503	1.57674
7.77337	1.56587
7.76173	1.56737
7.75012	1.59779
7.73856	1.61664
7.72703	1.5903
7.71553	1.64398
7.70406	1.63463
7.69263	1.52104
7.68123	1.62478
7.66987	1.70555
7.65855	1.62102
7.64725	1.56249
7.63598	1.63001
7.62475	1.6928
7.61356	1.74456
7.60239	1.7921
7.59126	1.8067
7.58017	1.76522
7.5691	1.7602
7.55806	1.77715
7.54707	1.801
7.5361	1.79184
7.52516	1.77909
7.51425	1.73998
7.50338	1.67695
7.49253	1.6903
7.48172	1.67446
7.47094	1.70814
7.46019	1.74828
7.44947	1.78781
7.43879	1.73637
7.42813	1.68557
7.4175	1.80126
7.4069	1.80796
7.39634	1.78437
7.3858	1.81193
7.37529	1.84256
7.36482	1.73542
7.35437	1.70646
7.34396	1.77281
7.33357	1.80321
7.32321	1.83588
7.31288	1.7587
7.30258	1.70837
7.29231	1.68835
7.28207	1.69375
7.27185	1.67973
7.26167	1.63698
7.25152	1.63667
7.24139	1.63618
7.23129	1.59485
7.22122	1.57277
7.21117	1.58681
7.20116	1.68748
7.19117	1.72093
7.18121	1.703
7.17128	1.65456
7.16137	1.64996
7.1515	1.67772
7.14164	1.64713
7.13182	1.57771
7.12203	1.5765
7.11225	1.62407
7.10251	1.6301
7.0928	1.66815
7.08311	1.71316
7.07344	1.69496
7.06381	1.63691
7.0542	1.54541
7.04461	1.50071
7.03506	1.55061
7.02552	1.5138
7.01601	1.46151
7.00653	1.36741
6.99708	1.29906
6.98765	1.34818
6.97824	1.44238
6.96886	1.47388
6.95951	1.42645
6.95018	1.39317
6.94087	1.36832
6.9316	1.39219
6.92234	1.36508
6.91311	1.38853
6.90391	1.33366
6.89473	1.24838
6.88557	1.34218
6.87644	1.40141
6.86733	1.38467
6.85824	1.47091
6.84918	1.44948
6.84015	1.41468
6.83114	1.4294
6.82215	1.38958
6.81319	1.3565
6.80424	1.34373
6.79532	1.37818
6.78643	1.40884
6.77756	1.39044
6.76871	1.39973
6.75989	1.41718
6.75109	1.41841
6.74231	1.39777
6.73355	1.41558
6.72482	1.38818
6.71611	1.39986
6.70742	1.3844
6.69875	1.37184
6.69011	1.37891
6.68149	1.45129
6.67289	1.46163
6.66431	1.42998
6.65576	1.45838
6.64722	1.49258
6.63871	1.41685
6.63022	1.34375
6.62175	1.29159
6.61331	1.25998
6.60488	1.33169
6.59648	1.43244
6.5881	1.51184
6.57974	1.37576
6.5714	1.24451
6.56308	1.2787
6.55478	1.3163
6.54651	1.37212
6.53825	1.32501
6.53001	1.25962
6.5218	1.24572
6.51361	1.1771
6.50544	1.16857
6.49729	1.2936
6.48915	1.2821
6.48104	1.16505
6.47295	1.19001
6.46488	1.26709
6.45683	1.26675
6.4488	1.2906
6.44079	1.27061
6.4328	1.16757
6.42482	1.13188
6.41687	1.22836
6.40894	1.28907
6.40103	1.15833
6.39314	1.06306
6.38526	1.09922
6.37741	1.15003
6.36957	1.15465
6.36176	1.13196
6.35396	1.15992
6.34618	1.15142
6.33843	1.00538
6.33069	0.99382
6.32297	0.989338
6.31527	1.02436
6.30758	1.05832
6.29992	1.05174
6.29227	1.06395
6.28465	1.04476
6.27704	0.975241
6.26945	0.923906
6.26188	0.91893
6.25432	0.884961
6.24679	0.880811
6.23927	0.905443
6.23177	0.860842
6.22429	0.811261
6.21683	0.851921
6.20938	0.90124
6.20195	0.871894
6.19454	0.830124
6.18715	0.82654
6.17978	0.914126
6.17242	0.912805
6.16508	0.836673
6.15776	0.826854
6.15045	0.861542
6.14317	0.915369
6.1359	0.899364
6.12864	0.856197
6.12141	0.738621
6.11419	0.720731
6.10699	0.743224
6.0998	0.663806
6.09263	0.70569
6.08549	0.765587
6.07835	0.795153
6.07123	0.763179
6.06413	0.767228
6.05705	0.797666
6.04998	0.729799
6.04293	0.673344
6.0359	0.647712
6.02888	0.671906
6.02187	0.718365
6.01489	0.745391
6.00792	0.775324
6.00096	0.789919
5.99403	0.738879
5.98711	0.759249
5.9802	0.772429
5.97331	0.783576
5.96644	0.763915
5.95958	0.672243
5.95274	0.640209
5.94591	0.704279
5.9391	0.715795
5.9323	0.712879
5.92552	0.752836
5.91876	0.789357
5.91201	0.803366
5.90528	0.728283
5.89856	0.731891
5.89186	0.806267
5.88517	0.775829
5.8785	0.773711
5.87184	0.897798
5.8652	0.89007
5.85857	0.813573
5.85196	0.897857
5.84536	0.931
5.83878	0.838833
5.83221	0.852077
5.82566	0.946093
5.81912	0.916397
5.81259	0.922339
5.80608	0.92925
5.79959	0.879986
5.79311	0.83578
5.78665	0.904782
5.78019	0.916709
5.77376	0.886691
5.76734	1.02045
5.76093	1.15929
5.75453	1.18905
5.74815	1.09186
5.74179	1.03985
5.73543	1.03169
5.7291	1.07161
5.72277	1.06228
5.71646	1.04882
5.71017	1.11066
5.70389	1.15185
5.69762	1.2131
5.69136	1.25009
5.68513	1.20398
5.6789	1.13356
5.67268	1.16382
5.66648	1.19851
5.6603	1.20308
5.65413	1.25572
5.64797	1.27354
5.64182	1.33982
5.63569	1.41597
5.62957	1.43495
5.62347	1.43544
5.61737	1.39574
5.61129	1.38044
5.60522	1.40336
5.59917	1.45973
5.59313	1.47207
5.5871	1.43148
5.58109	1.44514
5.57509	1.5429
5.5691	1.59661
5.56312	1.61347
5.55716	1.60897
5.55121	1.59658
5.54528	1.52292
5.53935	1.57888
5.53344	1.62004
5.52754	1.70512
5.52166	1.81343
5.51578	1.81522
5.50992	1.71107
5.50407	1.72498
5.49823	1.79118
5.49241	1.78295
5.4866	1.80352
5.4808	1.8984
5.47501	1.97348
5.46923	1.97437
5.46347	1.94275
5.45772	2.00396
5.45198	2.03572
5.44625	2.05456
5.44054	2.06754
5.43484	2.06814
5.42914	2.09458
5.42347	2.12412
5.4178	2.08034
5.41214	2.11686
5.4065	2.18053
5.40087	2.23212
5.39525	2.25898
5.38964	2.27393
5.38404	2.3614
5.37846	2.35721
5.37288	2.28308
5.36732	2.27516
5.36177	2.36947
5.35623	2.43707
5.35071	2.42552
5.34519	2.43553
5.33968	2.41543
5.33419	2.37885
5.32871	2.4092
5.32324	2.46989
5.31778	2.52192
5.31233	2.55387
5.30689	2.52227
5.30147	2.47741
5.29605	2.49936
5.29065	2.49101
5.28525	2.49652
5.27987	2.50568
5.2745	2.4952
5.26914	2.55682
5.26379	2.58841
5.25845	2.64387
5.25312	2.68389
5.24781	2.6693
5.2425	2.61073
5.23721	2.56335
5.23192	2.59695
5.22665	2.67214
5.22138	2.70633
5.21613	2.70232
5.21089	2.68234
5.20566	2.65754
5.20044	2.66434
5.19522	2.68605
5.19002	2.76293
5.18483	2.77967
5.17965	2.80539
5.17448	2.82199
5.16933	2.79616
5.16418	2.71808
5.15904	2.65242
5.15391	2.66618
5.14879	2.73945
5.14368	2.78394
5.13859	2.82079
5.1335	2.8033
5.12842	2.75732
5.12335	2.80033
5.1183	2.90635
5.11325	2.90718
5.10821	2.85511
5.10318	2.8354
5.09817	2.88685
5.09316	2.87138
5.08816	2.84333
5.08317	2.82401
5.07819	2.82389
5.07322	2.89742
5.06826	2.88733
5.06331	2.81669
5.05837	2.85983
5.05344	2.93477
5.04852	2.91458
5.04361	2.93436
5.03871	2.95921
5.03382	2.91248
5.02894	2.89976
5.02406	2.94406
5.0192	3.00491
5.01435	2.97621
5.0095	2.92216
5.00467	2.96847
4.99984	2.97098
4.99502	2.99198
4.99021	2.97356
4.98542	2.95525
4.98063	2.98379
4.97585	2.99855
4.97108	2.96441
4.96632	2.98411
4.96156	3.00458
4.95682	2.97801
4.95209	2.99086
4.94736	2.99891
4.94264	3.0146
4.93794	3.03536
4.93324	2.98628
4.92855	2.96038
4.92387	2.92453
4.9192	2.92076
4.91453	2.89819
4.90988	2.9369
4.90524	2.96549
4.9006	2.9137
4.89597	2.95926
4.89135	3.04858
4.88674	3.01996
4.88214	2.9566
4.87755	2.92429
4.87296	2.86877
4.86839	2.84412
4.86382	2.88594
4.85926	2.83919
4.85471	2.78266
4.85017	2.80525
4.84564	2.86967
4.84111	2.84375
4.8366	2.77218
4.83209	2.73706
4.82759	2.61529
4.8231	2.53965
4.81862	2.60789
4.81415	2.64374
4.80968	2.57971
4.80522	2.52995
4.80077	2.52997
4.79633	2.53657
4.7919	2.53963
4.78747	2.55246
4.78306	2.56656
4.77865	2.54358
4.77425	2.51372
4.76986	2.6135
4.76547	2.63048
4.7611	2.57625
4.75673	2.64078
4.75237	2.68228
4.74802	2.5958
4.74367	2.55155
4.73934	2.62285
4.73501	2.67156
4.73069	2.65519
4.72638	2.66522
4.72207	2.63057
4.71777	2.51356
4.71348	2.58042
4.7092	2.64278
4.70493	2.61009
4.70066	2.58587
4.69641	2.69277
4.69216	2.76429
4.68791	2.81233
4.68368	2.73986
4.67945	2.61087
4.67523	2.66933
4.67102	2.79448
4.66682	2.76087
4.66262	2.68789
4.65843	2.70835
4.65425	2.68512
4.65007	2.62139
4.64591	2.6338
4.64175	2.65179
4.6376	2.71135
4.63345	2.71686
4.62932	2.74076
4.62519	2.70087
4.62106	2.65627
4.61695	2.65197
4.61284	2.70235
4.60874	2.75588
4.60465	2.72627
4.60056	2.68525
4.59648	2.74081
4.59241	2.7622
4.58835	2.78972
4.58429	2.76196
4.58024	2.76689
4.5762	2.71213
4.57216	2.64905
4.56814	2.6151
4.56411	2.64341
4.5601	2.71715
4.55609	2.71997
4.55209	2.7414
4.5481	2.79678
4.54411	2.73709
4.54013	2.78234
4.53616	2.73007
4.5322	2.61841
4.52824	2.61735
4.52429	2.64418
4.52034	2.70821
4.51641	2.69863
4.51247	2.62432
4.50855	2.62969
4.50463	2.64418
4.50072	2.70556
4.49682	2.66705
4.49292	2.60734
4.48903	2.69962
4.48515	2.65688
4.48127	2.60513
4.4774	2.55535
4.47354	2.57437
4.46968	2.60359
4.46584	2.61795
4.46199	2.61326
4.45815	2.63292
4.45432	2.63048
4.4505	2.53296
4.44668	2.50112
4.44287	2.55804
4.43907	2.55192
4.43527	2.62247
4.43148	2.63176
4.4277	2.63353
4.42392	2.57989
4.42015	2.48989
4.41638	2.4486
4.41262	2.47617
4.40887	2.50275
4.40513	2.48793
4.40139	2.41383
4.39765	2.42636
4.39393	2.40728
4.39021	2.36531
4.38649	2.39042
4.38278	2.33665
4.37908	2.3712
4.37539	2.45038
4.3717	2.44496
4.36801	2.36584
4.36434	2.27113
4.36067	2.20609
4.357	2.17856
4.35335	2.18511
4.34969	2.21406
4.34605	2.2036
4.34241	2.13063
4.33877	2.10555
4.33514	2.27624
4.33152	2.35883
4.32791	2.20853
4.3243	2.06694
4.32069	2.0323
4.3171	2.12464
4.31351	2.17232
4.30992	2.08882
4.30634	1.99387
4.30277	1.99703
4.2992	2.00115
4.29564	1.97549
4.29208	1.9859
4.28853	2.08114
4.28499	2.04911
4.28145	1.97975
4.27792	1.93096
4.27439	1.92016
4.27087	1.95532
4.26735	1.91933
4.26384	1.91487
4.26034	1.89859
4.25684	1.87606
4.25335	1.8232
4.24986	1.77696
4.24638	1.733
4.24291	1.71218
4.23944	1.79556
4.23598	1.8456
4.23252	1.83647
4.22906	1.75252
4.22562	1.6964
4.22218	1.70663
4.21874	1.68903
4.21531	1.71285
4.21189	1.75917
4.20847	1.67399
4.20506	1.55687
4.20165	1.54273
4.19825	1.60747
4.19485	1.61168
4.19146	1.56685
4.18807	1.53524
4.18469	1.55677
4.18132	1.53107
4.17795	1.54375
4.17458	1.55583
4.17123	1.56084
4.16787	1.50423
4.16453	1.49859
4.16118	1.50139
4.15785	1.38382
4.15451	1.29891
4.15119	1.30254
4.14787	1.31765
4.14455	1.31369
4.14124	1.29415
4.13794	1.31577
4.13464	1.31718
4.13134	1.33038
4.12805	1.3581
4.12477	1.39028
4.12149	1.35734
4.11822	1.27252
4.11495	1.28324
4.11168	1.27855
4.10843	1.24101
4.10517	1.17734
4.10192	1.21127
4.09868	1.26551
4.09545	1.25645
4.09221	1.17591
4.08899	1.10523
4.08576	1.10089
4.08255	1.13564
4.07933	1.18575
4.07613	1.18991
4.07292	1.22319
4.06973	1.22677
4.06654	1.16495
4.06335	1.14653
4.06017	1.12064
4.05699	1.08753
4.05382	1.06854
4.05065	1.10981
4.04749	1.1793
4.04433	1.16115
4.04118	1.1018
4.03803	1.03697
4.03489	1.01389
4.03175	1.05663
4.02862	1.08591
4.02549	1.04627
4.02237	1.06193
4.01925	1.08579
4.01614	1.11115
4.01303	1.0811
4.00993	1.1251
4.00683	1.18533
4.00373	1.10527
4.00064	1.03532
3.99756	1.03363
3.99448	1.03325
3.9914	1.07828
3.98833	1.20215
3.98527	1.17208
3.98221	1.02831
3.97915	0.933284
3.9761	0.971856
3.97305	1.0686
3.97001	1.10324
3.96697	1.03386
3.96394	1.06799
3.96091	1.07513
3.95789	1.0706
3.95487	1.09558
3.95186	1.06246
3.94885	1.01188
3.94584	1.03885
3.94284	1.11134
3.93984	1.07454
3.93685	1.10023
3.93386	1.17708
3.93088	1.14278
3.9279	1.08446
3.92493	1.07726
3.92196	1.10478
3.919	1.06572
3.91604	1.07625
3.91308	1.14114
3.91013	1.11377
3.90718	1.02291
3.90424	1.06971
3.9013	1.21164
3.89837	1.2268
3.89544	1.1465
3.89252	1.13912
3.8896	1.13595
3.88668	1.14645
3.88377	1.16368
3.88086	1.16223
3.87796	1.15384
3.87506	1.1505
3.87217	1.13174
3.86928	1.18412
3.86639	1.22898
3.86351	1.25143
3.86064	1.23706
3.85776	1.16571
3.8549	1.15655
3.85203	1.1498
3.84917	1.19305
3.84631	1.18149
3.84346	1.19035
3.84062	1.17461
3.83777	1.15828
3.83494	1.11962
3.8321	1.17656
3.82927	1.2175
3.82644	1.15994
3.82362	1.12581
3.82081	1.13805
3.81799	1.15597
3.81518	1.14897
3.81238	1.11047
3.80958	1.12221
3.80678	1.13588
3.80399	1.16112
3.8012	1.2153
3.79841	1.22603
3.79563	1.2163
3.79286	1.17792
3.79008	1.2379
3.78731	1.21605
3.78455	1.23298
3.78179	1.245
3.77903	1.19263
3.77628	1.12908
3.77353	1.05418
3.77079	1.07894
3.76805	1.14593
3.76531	1.23315
3.76258	1.19504
3.75985	1.09449
3.75713	1.0987
3.7544	1.13201
3.75169	1.23469
3.74898	1.23159
3.74627	1.18011
3.74356	1.17577
3.74086	1.14023
3.73816	1.1034
3.73547	1.12672
3.73278	1.18197
3.7301	1.0837
3.72741	1.07029
3.72474	1.05289
3.72206	1.04381
3.71939	1.14224
3.71673	1.15144
3.71406	1.117
3.71141	1.06418
3.70875	1.04255
3.7061	1.10957
3.70345	1.19658
3.70081	1.15817
3.69817	1.12736
3.69553	1.05804
3.6929	0.957313
3.69027	0.993207
3.68765	1.06088
3.68503	1.10609
3.68241	1.07228
3.6798	1.08654
3.67719	1.12405
3.67458	1.06372
3.67198	1.02495
3.66938	1.04128
3.66678	1.13681
3.66419	1.20809
3.66161	1.15484
3.65902	1.05648
3.65644	0.99874
3.65387	1.01942
3.65129	1.11244
3.64872	1.07494
3.64616	1.03469
3.64359	1.12196
3.64103	1.17068
3.63848	1.08375
3.63593	1.06527
3.63338	1.08283
3.63084	1.1003
3.6283	1.1179
3.62576	1.13897
3.62322	1.20584
3.62069	1.13854
3.61817	1.17368
3.61564	1.15681
3.61312	1.06204
3.61061	0.995621
3.6081	0.953574
3.60559	0.94363
3.60308	0.991166
3.60058	0.967816
3.59808	1.00036
3.59558	1.16811
3.59309	1.18145
3.59061	1.04403
3.58812	1.03883
3.58564	1.07563
3.58316	1.07175
3.58069	1.07036
3.57822	1.0286
3.57575	0.94934
3.57328	0.971128
3.57082	0.990221
3.56836	0.965595
3.56591	1.05511
3.56346	1.07118
3.56101	1.02245
3.55857	1.00238
3.55613	1.04117
3.55369	1.04403
3.55126	1.0051
3.54883	0.995423
3.5464	1.03045
3.54397	1.02291
3.54155	0.973102
3.53914	0.943724
3.53672	0.955312
3.53431	0.960668
3.5319	0.948533
3.5295	0.888864
3.5271	0.951284
3.5247	0.979284
3.52231	0.986804
3.51991	0.99132
3.51753	0.969456
3.51514	0.989596
3.51276	1.00436
3.51038	0.932488
3.50801	0.984688
3.50563	1.11357
3.50327	1.09929
3.5009	1.05419
3.49854	0.976115
3.49618	0.899815
3.49382	0.974323
3.49147	1.06096
3.48912	1.05227
3.48677	0.967878
3.48443	0.953275
3.48209	1.09195
3.47975	1.09037
3.47742	0.977226
3.47509	0.92305
3.47276	0.974093
3.47044	1.06399
3.46812	0.989394
3.4658	0.938653
3.46348	0.968522
3.46117	0.966564
3.45886	0.923977
3.45656	0.941645
3.45425	0.986898
3.45195	0.982114
3.44966	0.952562
3.44736	0.987296
3.44507	0.932255
3.44279	0.825139
3.4405	0.837483
3.43822	0.918923
3.43594	0.9771
3.43367	0.915331
3.43139	0.85867
3.42912	0.809889
3.42686	0.790299
3.42459	0.830852
3.42233	0.851909
3.42007	0.802677
3.41782	0.845447
3.41557	0.868912
3.41332	0.91262
3.41108	0.964707
3.40883	0.94934
3.40659	0.855377
3.40435	0.859309
3.40212	0.831015
3.39989	0.849718
3.39766	0.873078
3.39544	0.778415
3.39322	0.809193
3.391	0.800921
3.38878	0.802659
3.38657	0.851099
3.38436	0.90091
3.38215	0.899339
3.37994	0.912509
3.37774	0.815528
3.37554	0.680772
3.37335	0.755382
3.37115	0.801882
3.36896	0.760349
3.36678	0.812963
3.36459	0.876666
3.36241	0.823364
3.36023	0.716677
3.35805	0.645931
3.35588	0.68989
3.35371	0.743317
3.35154	0.80274
3.34938	0.821084
3.34721	0.791437
3.34505	0.728257
3.3429	0.61751
3.34074	0.659064
3.33859	0.722256
3.33644	0.764422
3.3343	0.831072
3.33215	0.839421
3.33001	0.799463
3.32788	0.685776
3.32574	0.626913
3.32361	0.61993
3.32148	0.655665
3.31936	0.72388
3.31723	0.801996
3.31511	0.695348
3.31299	0.615392
3.31088	0.65524
3.30876	0.69464
3.30665	0.725752
3.30455	0.750644
3.30244	0.702009
3.30034	0.63755
3.29824	0.655089
3.29614	0.655977
3.29405	0.612574
3.29196	0.693169
3.28987	0.769874
3.28778	0.760662
3.2857	0.781015
3.28362	0.761875
3.28154	0.680041
3.27946	0.610707
3.27739	0.606002
3.27532	0.573994
3.27325	0.583542
3.27119	0.651723
3.26913	0.55559
3.26707	0.54544
3.26501	0.652256
3.26295	0.736281
3.2609	0.636462
3.25885	0.585028
3.2568	0.602623
3.25476	0.608796
3.25272	0.622848
3.25068	0.73619
3.24864	0.74636
3.24661	0.548555
3.24458	0.456176
3.24255	0.528237
3.24052	0.547818
3.2385	0.497488
3.23648	0.520223
3.23446	0.611629
3.23244	0.537791
3.23043	0.603993
3.22841	0.6329
3.2264	0.645505
3.2244	0.562488
3.22239	0.598666
3.22039	0.666418
3.21839	0.528691
3.2164	0.447242
3.2144	0.495479
3.21241	0.488355
3.21042	0.507695
3.20844	0.565541
3.20645	0.627223
3.20447	0.578176
3.20249	0.452456
3.20051	0.343554
3.19854	0.436814
3.19657	0.503173
3.1946	0.545013
3.19263	0.57085
3.19067	0.605272
3.1887	0.573868
3.18674	0.644057
3.18479	0.67339
3.18283	0.60026
3.18088	0.448165
3.17893	0.379111
3.17698	0.462046
3.17504	0.604727
3.17309	0.674991
3.17115	0.645878
3.16921	0.603228
3.16728	0.501054
3.16534	0.506102
3.16341	0.503007
3.16148	0.505689
3.15956	0.533504
3.15763	0.477564
3.15571	0.533575
3.15379	0.613794
3.15187	0.570067
3.14996	0.555769
3.14805	0.655672
3.14614	0.671896
3.14423	0.619232
3.14232	0.618302
3.14042	0.542562
3.13852	0.433224
3.13662	0.497663
3.13472	0.596936
3.13283	0.593627
3.13094	0.620315
3.12905	0.570017
3.12716	0.454933
3.12528	0.457462
3.12339	0.613453
3.12151	0.684857
3.11964	0.648019
3.11776	0.693206
3.11589	0.759116
3.11401	0.775216
3.11214	0.68401
3.11028	0.587902
3.10841	0.574614
3.10655	0.538578
3.10469	0.516499
3.10283	0.579431
3.10098	0.59172
3.09912	0.606292
3.09727	0.59597
3.09542	0.559629
3.09358	0.553338
3.09173	0.610387
3.08989	0.679552
3.08805	0.675725
3.08621	0.616862
3.08437	0.595571
3.08254	0.662973
3.08071	0.620281
3.07888	0.536907
3.07705	0.621865
3.07523	0.711012
3.0734	0.660972
3.07158	0.543823
3.06977	0.597984
3.06795	0.793863
3.06613	0.788979
3.06432	0.605392
3.06251	0.540062
3.0607	0.548929
3.0589	0.621307
3.0571	0.646289
3.05529	0.776494
3.05349	0.79939
3.0517	0.736022
3.0499	0.816308
3.04811	0.875911
3.04632	0.875086
3.04453	0.863014
3.04274	0.783681
3.04096	0.777265
3.03918	0.765408
3.0374	0.723614
3.03562	0.578298
3.03384	0.476048
3.03207	0.645834
3.03029	0.783901
3.02852	0.74357
3.02676	0.801135
3.02499	0.821079
3.02323	0.937352
3.02146	0.858175
3.0197	0.715449
3.01795	0.737861
3.01619	0.716625
3.01444	0.802056
3.01269	0.918293
3.01094	0.809461
3.00919	0.757655
3.00744	0.737398
3.0057	0.766875
3.00396	0.773503
3.00222	0.731709
3.00048	0.640296
2.99875	0.589437
2.99701	0.652773
2.99528	0.698376
2.99355	0.723463
2.99183	0.753467
2.9901	0.896939
2.98838	0.80636
2.98666	0.688148
2.98494	0.773913
2.98322	0.852842
2.9815	0.8189
2.97979	0.648907
2.97808	0.676187
2.97637	0.734042
2.97466	0.699177
2.97295	0.642232
2.97125	0.713194
2.96955	0.883213
2.96785	0.869168
2.96615	0.653632
2.96446	0.635023
2.96276	0.659848
2.96107	0.546947
2.95938	0.494504
2.95769	0.544779
2.95601	0.652659
2.95432	0.684055
2.95264	0.612408
2.95096	0.475369
2.94928	0.442583
2.9476	0.477405
2.94593	0.474886
2.94425	0.450558
2.94258	0.431011
2.94092	0.441859
2.93925	0.446385
2.93758	0.502319
2.93592	0.495451
2.93426	0.479504
2.9326	0.451465
2.93094	0.44222
2.92928	0.311941
2.92763	0.343694
2.92598	0.444829
2.92433	0.521947
2.92268	0.542025
2.92103	0.375102
2.91939	0.273418
2.91775	0.363964
2.9161	0.29795
2.91447	0.160048
2.91283	-0.00541978
2.91119	0.0606999
2.90956	0.322822
2.90793	0.41506
2.9063	0.313816
2.90467	0.278844
2.90304	0.288562
2.90142	0.309623
2.89979	0.383857
2.89817	0.421786
2.89656	0.408241
2.89494	0.434611
2.89332	0.344855
2.89171	0.256102
2.8901	0.250584
2.88849	0.241626
2.88688	0.34742
2.88527	0.321964
2.88367	0.297296
2.88206	0.330967
2.88046	0.294836
2.87886	0.331078
2.87727	0.470895
2.87567	0.419196
2.87408	0.24771
2.87248	0.25666
2.87089	0.395704
2.8693	0.466415
2.86772	0.40423
2.86613	0.370779
2.86455	0.288466
2.86297	0.209667
2.86139	0.281976
2.85981	0.34026
2.85823	0.312521
2.85666	0.281992
2.85508	0.344168
2.85351	0.328453
2.85194	0.364516
2.85038	0.353704
2.84881	0.312552
2.84724	0.197429
2.84568	0.115666
2.84412	0.299831
2.84256	0.457054
2.841	0.531262
2.83945	0.398003
2.83789	0.277769
2.83634	0.287894
2.83479	0.341943
2.83324	0.292642
2.83169	0.293845
2.83015	0.289731
2.82861	0.321108
2.82706	0.293981
2.82552	0.313169
2.82398	0.301626
2.82245	0.266613
2.82091	0.330601
2.81938	0.439163
2.81784	0.423886
2.81631	0.402346
2.81479	0.494134
2.81326	0.507111
2.81173	0.383801
2.81021	0.30065
2.80869	0.289708
2.80716	0.456754
2.80565	0.534465
2.80413	0.324645
2.80261	0.261354
2.8011	0.338998
2.79959	0.578459
2.79808	0.658311
2.79657	0.543207
2.79506	0.460535
2.79355	0.574942
2.79205	0.603588
2.79055	0.511433
2.78904	0.506934
2.78754	0.624519
2.78605	0.702963
2.78455	0.70557
2.78306	0.724436
2.78156	0.841588
2.78007	0.936036
2.77858	0.994502
2.77709	0.995227
2.77561	0.926609
2.77412	1.03538
2.77264	1.27867
2.77116	1.33949
2.76968	1.37026
2.7682	1.567
2.76672	1.66267
2.76524	1.73951
2.76377	1.89318
2.7623	1.99745
2.76083	2.2039
2.75936	2.4093
2.75789	2.61662
2.75642	2.79388
2.75496	2.91833
2.7535	3.0089
2.75203	3.03501
2.75057	3.1968
2.74912	3.60326
2.74766	3.90725
2.7462	4.02174
2.74475	4.13838
2.7433	4.50825
2.74185	4.81869
2.7404	4.9955
2.73895	5.18879
2.7375	5.41978
2.73606	5.5807
2.73462	5.70648
2.73318	5.85836
2.73174	6.19206
2.7303	6.4931
2.72886	6.61244
2.72742	6.84283
2.72599	7.23458
2.72456	7.58907
2.72313	7.84235
2.7217	8.00165
2.72027	8.14935
2.71884	8.25111
2.71742	8.41738
2.71599	8.50762
2.71457	8.65997
2.71315	8.93963
2.71173	9.19628
2.71032	9.36781
2.7089	9.57801
2.70748	9.68521
2.70607	9.73122
2.70466	9.81977
2.70325	10.0042
2.70184	10.2141
2.70043	10.4153
2.69903	10.6653
2.69762	10.7713
2.69622	10.8664
2.69482	11.1213
2.69342	11.2875
2.69202	11.2769
2.69062	11.3407
2.68923	11.6047
2.68783	11.8437
2.68644	12.0526
2.68505	12.0048
2.68366	12.0044
2.68227	12.2319
2.68089	12.5081
2.6795	12.8049
2.67812	12.8967
2.67673	13.02
2.67535	12.9996
2.67397	13.0441
2.6726	13.3083
2.67122	13.5828
2.66984	13.7016
2.66847	13.7027
2.6671	13.9363
2.66572	14.0473
2.66435	13.9921
2.66299	13.88
2.66162	14.006
2.66025	14.2557
2.65889	14.3652
2.65753	14.4812
2.65616	14.5941
2.65481	14.6467
2.65345	14.8137
2.65209	14.926
2.65073	14.923
2.64938	14.9593
2.64803	15.0099
2.64667	15.1023
2.64532	15.3809
2.64397	15.6054
2.64263	15.5644
2.64128	15.5272
2.63994	15.6583
2.63859	15.7167
2.63725	15.8394
2.63591	15.9804
2.63457	16.1178
2.63323	16.1902
2.6319	16.3617
2.63056	16.5469
2.62923	16.416
2.62789	16.4171
2.62656	16.496
2.62523	16.4186
2.6239	16.4217
2.62258	16.5325
2.62125	16.7814
2.61993	16.9976
2.6186	16.9415
2.61728	17.1768
2.61596	17.2743
2.61464	17.1811
2.61332	17.1933
2.61201	17.2156
2.61069	17.2121
2.60938	17.2259
2.60807	17.3018
2.60675	17.4413
2.60544	17.588
2.60414	17.5685
2.60283	17.5864
2.60152	17.5141
2.60022	17.5046
2.59891	17.5483
2.59761	17.7178
2.59631	18.0094
2.59501	18.1653
2.59371	17.9698
2.59242	17.6944
2.59112	17.503
2.58983	17.6245
2.58853	17.7665
2.58724	17.8248
2.58595	17.8283
2.58466	17.9065
2.58338	18.0775
2.58209	18.0822
2.5808	17.9627
2.57952	17.8303
2.57824	18.0103
2.57695	18.1614
2.57567	18.0096
2.5744	17.9356
2.57312	17.9161
2.57184	17.905
2.57057	18.0416
2.56929	18.1172
2.56802	18.0007
2.56675	17.8592
2.56548	17.8271
2.56421	17.9991
2.56294	18.1799
2.56168	18.1237
2.56041	17.9558
2.55915	17.8789
2.55789	17.8842
2.55662	17.8277
2.55536	17.8382
2.5541	17.9759
2.55285	18.0809
2.55159	17.8812
2.55034	17.7289
2.54908	17.7727
2.54783	17.7865
2.54658	17.7922
2.54533	17.799
2.54408	17.7682
2.54283	17.7945
2.54159	17.8599
2.54034	17.8131
2.5391	17.7849
2.53785	17.7448
2.53661	17.7675
2.53537	17.8866
2.53413	17.8443
2.53289	17.7035
2.53166	17.7716
2.53042	17.8633
2.52919	17.7648
2.52795	17.7517
2.52672	17.7555
2.52549	17.851
2.52426	17.8242
2.52303	17.7266
2.52181	17.8276
2.52058	17.9632
2.51936	18.0782
2.51813	18.1658
2.51691	18.1973
2.51569	18.1553
2.51447	18.1197
2.51325	18.1667
2.51203	18.2867
2.51082	18.492
2.5096	18.6764
2.50839	18.636
2.50717	18.7501
2.50596	18.9191
2.50475	18.9038
2.50354	18.8498
2.50233	18.8476
2.50113	18.8653
2.49992	19.0197
2.49872	19.1373
2.49751	19.2161
2.49631	19.3239
2.49511	19.4309
2.49391	19.4579
2.49271	19.5703
2.49151	19.5771
2.49031	19.6622
2.48912	19.7455
2.48792	19.765
2.48673	19.6709
2.48554	19.8169
2.48435	19.9819
2.48316	19.9273
2.48197	20.1084
2.48078	20.206
2.4796	20.2217
2.47841	20.351
2.47723	20.5745
2.47604	20.7532
2.47486	20.6382
2.47368	20.6234
2.4725	20.6927
2.47132	20.8164
2.47014	21.046
2.46897	21.0232
2.46779	20.951
2.46662	21.0261
2.46545	21.1729
2.46427	21.2423
2.4631	21.2022
2.46193	21.3217
2.46077	21.4943
2.4596	21.5189
2.45843	21.4788
2.45727	21.5448
2.4561	21.6616
2.45494	21.7907
2.45378	21.8872
2.45262	21.9082
2.45146	22.0583
2.4503	22.2935
2.44914	22.3765
2.44799	22.3386
2.44683	22.3365
2.44568	22.5915
2.44452	22.7742
2.44337	22.9507
2.44222	23.124
2.44107	23.0636
2.43992	22.9359
2.43877	23.1359
2.43763	23.4644
2.43648	23.6125
2.43534	23.7021
2.43419	23.7933
2.43305	23.7632
2.43191	23.8518
2.43077	24.0189
2.42963	23.9987
2.42849	24.0393
2.42736	24.356
2.42622	24.4982
2.42509	24.5304
2.42395	24.6521
2.42282	24.6855
2.42169	24.7151
2.42056	24.9773
2.41943	25.1094
2.4183	25.0404
2.41717	25.1678
2.41605	25.3128
2.41492	25.3222
2.4138	25.6234
2.41267	25.7768
2.41155	25.7935
2.41043	25.8557
2.40931	25.9377
2.40819	26.0485
2.40707	26.1012
2.40595	26.1742
2.40484	26.2844
2.40372	26.4472
2.40261	26.5264
2.4015	26.6098
2.40039	26.772
2.39928	26.912
2.39817	26.9716
2.39706	26.8972
2.39595	26.937
2.39484	27.0796
2.39374	27.0907
2.39263	27.1437
2.39153	27.2596
2.39043	27.4137
2.38932	27.5768
2.38822	27.6593
2.38712	27.5947
2.38603	27.6752
2.38493	27.659
2.38383	27.6972
2.38274	27.7474
2.38164	27.7997
2.38055	27.9227
2.37946	28.0336
2.37836	28.1082
2.37727	28.088
2.37618	28.1063
2.3751	28.2956
2.37401	28.2843
2.37292	28.1803
2.37184	28.1751
2.37075	28.2552
2.36967	28.3253
2.36859	28.2803
2.3675	28.1834
2.36642	28.1789
2.36534	28.4516
2.36427	28.7174
2.36319	28.6677
2.36211	28.6439
2.36104	28.5788
2.35996	28.5004
2.35889	28.5517
2.35781	28.5745
2.35674	28.5642
2.35567	28.6543
2.3546	28.7011
2.35353	28.5925
2.35247	28.5289
2.3514	28.6169
2.35033	28.7544
2.34927	28.7472
2.3482	28.7672
2.34714	28.8321
2.34608	28.6747
2.34502	28.5977
2.34396	28.6245
2.3429	28.7161
2.34184	28.759
2.34078	28.6766
2.33973	28.5243
2.33867	28.4576
2.33762	28.4758
2.33656	28.481
2.33551	28.6017
2.33446	28.6967
2.33341	28.5894
2.33236	28.6134
2.33131	28.7506
2.33026	28.7831
2.32922	28.4997
2.32817	28.4452
2.32712	28.655
2.32608	28.6047
2.32504	28.4374
2.324	28.4633
2.32295	28.3857
2.32191	28.3611
2.32087	28.3775
2.31984	28.3806
2.3188	28.5024
2.31776	28.3525
2.31673	28.1509
2.31569	28.2028
2.31466	28.3805
2.31362	28.5317
2.31259	28.516
2.31156	28.3803
2.31053	28.2563
2.3095	28.2493
2.30847	28.3162
2.30745	28.4646
2.30642	28.4971
2.3054	28.4592
2.30437	28.4552
2.30335	28.3861
2.30232	28.3405
2.3013	28.2006
2.30028	28.1836
2.29926	28.2936
2.29824	28.3447
2.29722	28.3654
2.29621	28.4225
2.29519	28.4179
2.29417	28.4593
2.29316	28.5808
2.29215	28.5949
2.29113	28.5244
2.29012	28.493
2.28911	28.4804
2.2881	28.439
2.28709	28.4159
2.28608	28.3369
2.28507	28.3982
2.28407	28.5251
2.28306	28.5324
2.28206	28.5538
2.28105	28.7142
2.28005	28.6254
2.27905	28.5386
2.27805	28.525
2.27705	28.565
2.27605	28.6053
2.27505	28.4526
2.27405	28.4618
2.27305	28.605
2.27206	28.6544
2.27106	28.6332
2.27007	28.6442
2.26907	28.5987
2.26808	28.5523
2.26709	28.5863
2.2661	28.6417
2.26511	28.6303
2.26412	28.6988
2.26313	28.8534
2.26214	28.8001
2.26116	28.6543
2.26017	28.6463
2.25919	28.648
2.2582	28.664
2.25722	28.5425
2.25624	28.5566
2.25526	28.69
2.25428	28.6939
2.2533	28.7336
2.25232	28.6984
2.25134	28.5988
2.25036	28.6455
2.24939	28.6535
2.24841	28.6656
2.24744	28.6887
2.24646	28.5714
2.24549	28.6074
2.24452	28.5958
2.24355	28.6509
2.24257	28.6392
2.24161	28.4209
2.24064	28.4558
2.23967	28.5372
2.2387	28.472
2.23774	28.4893
2.23677	28.5106
2.23581	28.4541
2.23484	28.4189
2.23388	28.5773
2.23292	28.691
2.23196	28.5827
2.231	28.4724
2.23004	28.5154
2.22908	28.4698
2.22812	28.3804
2.22716	28.373
2.22621	28.3303
2.22525	28.3846
2.2243	28.3847
2.22334	28.3837
2.22239	28.4009
2.22144	28.3103
2.22049	28.2286
2.21953	28.2344
2.21859	28.242
2.21764	28.2679
2.21669	28.3966
2.21574	28.4581
2.21479	28.3418
2.21385	28.3111
2.2129	28.2484
2.21196	28.1688
2.21102	28.2271
2.21007	28.2314
2.20913	28.325
2.20819	28.4003
2.20725	28.3619
2.20631	28.362
2.20537	28.378
2.20444	28.3199
2.2035	28.1826
2.20256	28.0382
2.20163	28.084
2.20069	28.207
2.19976	28.2408
2.19883	28.1306
2.19789	28.104
2.19696	28.2533
2.19603	28.3815
2.1951	28.3411
2.19417	28.2569
2.19325	28.096
2.19232	28.0908
2.19139	28.2185
2.19047	28.2766
2.18954	28.0907
2.18862	28.0221
2.18769	28.0495
2.18677	28.0635
2.18585	28.0754
2.18493	28.0337
2.18401	28.0162
2.18309	27.9763
2.18217	27.8752
2.18125	27.9559
2.18033	27.9087
2.17942	27.8381
2.1785	28.1049
2.17759	28.2807
2.17667	28.0187
2.17576	27.9555
2.17485	28.1576
2.17393	28.1169
2.17302	28.0851
2.17211	27.9319
2.1712	27.7193
2.17029	27.8011
2.16939	27.9682
2.16848	27.9891
2.16757	27.8135
2.16667	27.7002
2.16576	27.629
2.16486	27.7152
2.16395	27.9316
2.16305	28.1629
2.16215	28.1846
2.16125	28.0544
2.16035	27.9824
2.15945	28.0098
2.15855	28.0077
2.15765	27.9212
2.15675	27.9009
2.15586	27.991
2.15496	28.1009
2.15406	28.0625
2.15317	27.8759
2.15228	27.812
2.15138	27.9204
2.15049	28.0293
2.1496	27.757
2.14871	27.5701
2.14782	27.7342
2.14693	28.0067
2.14604	28.2612
2.14515	28.1781
2.14427	28.0645
2.14338	28.1157
2.14249	28.1472
2.14161	28.0521
2.14072	28.032
2.13984	27.9731
2.13896	27.8469
2.13808	27.9816
2.13719	28.1446
2.13631	28.232
2.13543	28.1219
2.13455	28.0509
2.13368	28.0729
2.1328	28.26
2.13192	28.4797
2.13105	28.5907
2.13017	28.5872
2.1293	28.3889
2.12842	28.2982
2.12755	28.5897
2.12668	28.6125
2.1258	28.3163
2.12493	28.195
2.12406	28.1988
2.12319	28.3926
2.12232	28.5589
2.12145	28.4514
2.12059	28.5246
2.11972	28.8237
2.11885	28.9608
2.11799	28.7667
2.11712	28.7721
2.11626	28.8201
2.1154	28.8385
2.11453	28.9098
2.11367	28.7899
2.11281	28.931
2.11195	28.8751
2.11109	28.5408
2.11023	28.4965
2.10937	28.5166
2.10851	28.6955
2.10766	28.7836
2.1068	28.8325
2.10594	29.0157
2.10509	29.0601
2.10423	29.1135
2.10338	29.2531
2.10253	29.366
2.10168	29.2513
2.10082	29.1796
2.09997	29.1528
2.09912	28.891
2.09827	28.864
2.09742	29.1159
2.09658	29.2212
2.09573	29.3125
2.09488	29.4125
2.09404	29.2441
2.09319	28.9941
2.09235	29.1007
2.0915	29.253
2.09066	29.3266
2.08982	29.2931
2.08897	29.3009
2.08813	29.3984
2.08729	29.5186
2.08645	29.3819
2.08561	29.3375
2.08477	29.3726
2.08394	29.3369
2.0831	29.3452
2.08226	29.3919
2.08143	29.4613
2.08059	29.6652
2.07976	29.7502
2.07892	29.6002
2.07809	29.573
2.07726	29.6168
2.07643	29.5789
2.07559	29.491
2.07476	29.4261
2.07393	29.2712
2.0731	29.4822
2.07228	29.8311
2.07145	29.5151
2.07062	29.2464
2.06979	29.2554
2.06897	29.0504
2.06814	29.196
2.06732	29.5697
2.06649	29.5461
2.06567	29.5538
2.06485	29.5486
2.06403	29.4364
2.0632	29.3877
2.06238	29.5796
2.06156	29.6508
2.06074	29.5458
2.05993	29.4649
2.05911	29.4557
2.05829	29.5256
2.05747	29.386
2.05666	29.269
2.05584	29.3744
2.05503	29.5063
2.05421	29.2042
2.0534	28.9738
2.05259	29.1133
2.05177	29.4242
2.05096	29.5254
2.05015	29.5146
2.04934	29.4386
2.04853	29.3295
2.04772	29.3296
2.04691	29.27
2.04611	29.2775
2.0453	29.1198
2.04449	29.0395
2.04369	29.0434
2.04288	28.9713
2.04208	28.7651
2.04127	28.5935
2.04047	28.4423
2.03967	28.2447
2.03886	28.3558
2.03806	28.5372
2.03726	28.3577
2.03646	28.3001
2.03566	28.2914
2.03486	28.1864
2.03407	28.0299
2.03327	28.0762
2.03247	28.0291
2.03167	28.1642
2.03088	28.4411
2.03008	28.1142
2.02929	27.5844
2.0285	27.6199
2.0277	27.8573
2.02691	27.5783
2.02612	27.4669
2.02533	27.5009
2.02453	27.2615
2.02374	26.9912
2.02295	26.884
2.02217	26.711
2.02138	26.5644
2.02059	26.5964
2.0198	26.5764
2.01902	26.4035
2.01823	26.4858
2.01744	26.2614
2.01666	26.0817
2.01588	25.9438
2.01509	25.6607
2.01431	25.7522
2.01353	26.0658
2.01275	25.8086
2.01196	25.0712
2.01118	24.821
2.0104	24.8087
2.00963	25.0125
2.00885	25.1445
2.00807	24.7511
2.00729	24.4967
2.00651	24.6
2.00574	24.6578
2.00496	24.6293
2.00419	24.4364
2.00341	24.1789
2.00264	23.9367
2.00187	23.9332
2.00109	23.9866
2.00032	23.9115
