Name: Obsidian
Type: Rock
Class: Igneous
Subclass:  Felsic 
Particle Size: Solid surface
Sample No.: Ward01.txt
Owner: JPL
Wavelength range:  IR 
Origin: Ward's Collection of American Rocks.  Sample locality - Lake County, Oregon.
Collected by:  Ward's Natural Science
Description: A jet black glass with conchoidal fracture.  Thin edge
sometimes show parallel flow bands.  Geologic age - Tertiary.
Geologic Name - Glass Buttes Series.



Measurement: Hemispherical reflectance
First Column: X
Second Column: Y
X Units: Wavelength (micrometers)
Y Units: Reflectance (percent)
First X Value: 15.3871
Last X Value: 1.9998
Number of X Values: 2257
Additional information: None

15.3871   5.09767
15.3416   5.07224
15.2964   5.12594
15.2514   5.56800
15.2066   5.77715
15.1622   5.67703
15.1180   5.40237
15.0740   5.36990
15.0303   5.67314
14.9869   5.66271
14.9437   5.80458
14.9008   5.99655
14.8581   5.84054
14.8156   5.72638
14.7734   5.80622
14.7314   5.83334
14.6897   5.87653
14.6482   6.00112
14.6069   6.09137
14.5659   6.11834
14.5251   6.37827
14.4845   6.40811
14.4442   6.01656
14.4041   5.86035
14.3642   6.09891
14.3245   6.26430
14.2850   6.46357
14.2458   6.50169
14.2068   6.44998
14.1679   6.23850
14.1293   6.24790
14.0909   6.39386
14.0528   6.46765
14.0148   6.59641
13.9770   6.53183
13.9394   6.42121
13.9021   6.43886
13.8649   6.45948
13.8279   6.58961
13.7911   6.62003
13.7546   6.54381
13.7182   6.65990
13.6820   6.67632
13.6460   6.39411
13.6101   6.39534
13.5745   6.57561
13.5391   6.56248
13.5038   6.60029
13.4687   6.58294
13.4339   6.55837
13.3991   6.64430
13.3646   6.49704
13.3302   6.43247
13.2961   6.52432
13.2621   6.56502
13.2282   6.61012
13.1946   6.86876
13.1611   6.91098
13.1278   6.90013
13.0946   6.95463
13.0616   6.94920
13.0288   6.94055
12.9962   7.04346
12.9637   7.10926
12.9313   7.17404
12.8992   7.07890
12.8672   6.89368
12.8353   6.85141
12.8036   6.90140
12.7721   6.94964
12.7407   6.96198
12.7095   6.94234
12.6784   6.97706
12.6475   6.87234
12.6167   6.80744
12.5861   6.65550
12.5556   6.68375
12.5253   6.64408
12.4951   6.38854
12.4651   6.24110
12.4352   6.22467
12.4054   6.18057
12.3758   6.07019
12.3463   5.90717
12.3170   5.78881
12.2878   5.82128
12.2588   5.88825
12.2299   5.86322
12.2011   5.82995
12.1725   5.78025
12.1439   5.73286
12.1156   5.66920
12.0873   5.55207
12.0592   5.46443
12.0312   5.60106
12.0034   5.85273
11.9757   6.05710
11.9481   5.87554
11.9206   5.81080
11.8933   5.92302
11.8661   6.12416
11.8390   6.38541
11.8120   6.36802
11.7852   6.34388
11.7584   6.60186
11.7318   6.88321
11.7053   7.15133
11.6790   7.27406
11.6527   7.31949
11.6266   7.40535
11.6006   7.57054
11.5747   7.63463
11.5489   7.85494
11.5233   8.15827
11.4977   8.21563
11.4723   8.24650
11.4469   8.38557
11.4217   8.48174
11.3966   8.66978
11.3716   8.86106
11.3468   8.88534
11.3220   8.93664
11.2973   9.07908
11.2728   9.21107
11.2483   9.40631
11.2240   9.64514
11.1997   9.71174
11.1756   9.63323
11.1515   9.88442
11.1276  10.21380
11.1038  10.24460
11.0801  10.28490
11.0564  10.42640
11.0329  10.57030
11.0095  10.84990
10.9862  11.03070
10.9629  11.18390
10.9398  11.24350
10.9168  11.32330
10.8938  11.54540
10.8710  11.65950
10.8483  11.76790
10.8256  12.05830
10.8031  12.29790
10.7806  12.60020
10.7582  12.85200
10.7360  12.98170
10.7138  13.04330
10.6917  13.14740
10.6697  13.41340
10.6478  13.58570
10.6260  13.70010
10.6042  13.92710
10.5826  14.13740
10.5610  14.34520
10.5396  14.72830
10.5182  15.04740
10.4969  15.08510
10.4757  15.36590
10.4546  15.74340
10.4335  15.97710
10.4126  16.14600
10.3917  16.37350
10.3709  16.70600
10.3502  17.02050
10.3296  17.27160
10.3091  17.63490
10.2886  17.91410
10.2683  18.03360
10.2480  18.27220
10.2277  18.70420
10.2076  18.91610
10.1876  19.27030
10.1676  19.65540
10.1477  19.93520
10.1279  20.17310
10.1081  20.56180
10.0885  20.95250
10.0689  21.15560
10.0494  21.43150
10.0299  21.87250
10.0106  22.15250
 9.9913  22.50020
 9.9720  22.81530
 9.9529  23.10120
 9.9338  23.47620
 9.9148  23.73820
 9.8959  24.07600
 9.8771  24.52430
 9.8583  24.89960
 9.8396  25.13110
 9.8210  25.34380
 9.8024  25.68980
 9.7839  26.14710
 9.7655  26.55690
 9.7471  26.85140
 9.7288  27.12860
 9.7106  27.32310
 9.6925  27.66220
 9.6744  28.01140
 9.6564  28.40490
 9.6384  28.71860
 9.6205  29.00180
 9.6027  29.36250
 9.5850  29.82730
 9.5673  30.24550
 9.5497  30.67100
 9.5321  31.13080
 9.5146  31.35810
 9.4972  31.77950
 9.4798  32.28300
 9.4625  32.61390
 9.4453  32.94190
 9.4281  33.25480
 9.4110  33.62910
 9.3940  34.00270
 9.3770  34.48960
 9.3600  34.77800
 9.3432  35.14170
 9.3264  35.63620
 9.3096  36.12700
 9.2930  36.53290
 9.2763  36.88460
 9.2598  37.18360
 9.2432  37.55950
 9.2268  37.89000
 9.2104  37.97330
 9.1941  38.09050
 9.1778  38.23190
 9.1616  38.11910
 9.1454  38.08730
 9.1293  37.97250
 9.1133  37.64490
 9.0973  37.23740
 9.0814  36.89840
 9.0655  36.37880
 9.0497  35.77050
 9.0339  35.04980
 9.0182  34.35920
 9.0025  33.70070
 8.9870  32.98460
 8.9714  32.14420
 8.9559  31.34520
 8.9405  30.71890
 8.9251  30.08020
 8.9097  29.39790
 8.8945  28.70500
 8.8792  28.12700
 8.8641  27.66910
 8.8489  27.07260
 8.8338  26.44790
 8.8188  25.88740
 8.8039  25.45800
 8.7889  24.94410
 8.7741  24.53520
 8.7592  24.18370
 8.7445  23.80950
 8.7297  23.49580
 8.7151  23.16500
 8.7005  22.85500
 8.6859  22.52390
 8.6714  22.35010
 8.6569  22.09540
 8.6425  21.69560
 8.6281  21.50970
 8.6137  21.21020
 8.5994  20.99230
 8.5852  20.86560
 8.5710  20.76070
 8.5569  20.63690
 8.5428  20.48200
 8.5287  20.25010
 8.5147  20.04340
 8.5008  19.91560
 8.4869  19.82180
 8.4730  19.74600
 8.4592  19.52690
 8.4454  19.21530
 8.4316  19.06280
 8.4180  19.02810
 8.4043  18.93610
 8.3907  18.77890
 8.3772  18.57100
 8.3637  18.44780
 8.3502  18.40220
 8.3368  18.20820
 8.3234  18.16700
 8.3100  17.96480
 8.2967  17.50060
 8.2835  17.18570
 8.2703  17.16550
 8.2571  17.00530
 8.2440  16.64560
 8.2309  16.30340
 8.2179  16.00210
 8.2049  15.54890
 8.1919  15.28760
 8.1790  14.99960
 8.1661  14.50230
 8.1532  13.96440
 8.1404  13.44210
 8.1277  12.81020
 8.1150  12.25030
 8.1023  11.70940
 8.0897  11.07780
 8.0770  10.38490
 8.0645   9.65530
 8.0520   8.90397
 8.0395   8.06578
 8.0270   7.26233
 8.0146   6.63117
 8.0023   5.85134
 7.9899   5.11949
 7.9776   4.52300
 7.9654   3.95221
 7.9532   3.44957
 7.9410   3.01406
 7.9288   2.59639
 7.9167   2.21546
 7.9047   1.91077
 7.8926   1.70653
 7.8807   1.50553
 7.8687   1.33435
 7.8568   1.07768
 7.8449   0.94271
 7.8330   0.88398
 7.8212   0.73396
 7.8094   0.70620
 7.7977   0.64342
 7.7860   0.60458
 7.7743   0.61418
 7.7627   0.46357
 7.7511   0.40423
 7.7395   0.32621
 7.7280   0.30624
 7.7165   0.25264
 7.7050   0.18803
 7.6936   0.19302
 7.6822   0.15760
 7.6708   0.14840
 7.6595   0.19976
 7.6482   0.17707
 7.6369   0.12926
 7.6257   0.09646
 7.6145   0.07320
 7.6033   0.01487
 7.5922   0.00876
 7.5811   0.12796
 7.5700   0.09714
 7.5590   0.00000
 7.5480   0.01585
 7.5370   0.04650
 7.5261  -0.01110
 7.5152   0.01444
 7.5043   0.02510
 7.4935   0.06985
 7.4826   0.17646
 7.4718   0.18734
 7.4611   0.16610
 7.4504   0.23540
 7.4397   0.15022
 7.4290   0.02960
 7.4184   0.11779
 7.4078   0.26429
 7.3972   0.28784
 7.3867   0.25044
 7.3762   0.28143
 7.3657   0.29646
 7.3553   0.30720
 7.3449   0.38471
 7.3345   0.49533
 7.3241   0.52118
 7.3138   0.43499
 7.3035   0.42086
 7.2932   0.40655
 7.2830   0.35966
 7.2727   0.31719
 7.2626   0.37427
 7.2524   0.50726
 7.2423   0.41469
 7.2322   0.45075
 7.2221   0.54913
 7.2120   0.58948
 7.2020   0.58152
 7.1921   0.57080
 7.1821   0.55131
 7.1722   0.54207
 7.1623   0.56048
 7.1524   0.51091
 7.1425   0.56431
 7.1327   0.65084
 7.1229   0.67801
 7.1131   0.62484
 7.1034   0.61507
 7.0937   0.61814
 7.0840   0.54340
 7.0743   0.62564
 7.0647   0.73414
 7.0551   0.72505
 7.0455   0.76233
 7.0359   0.76772
 7.0264   0.77665
 7.0169   0.84691
 7.0074   0.94906
 6.9979   0.96864
 6.9885   0.89689
 6.9791   0.87403
 6.9697   0.79021
 6.9604   0.72181
 6.9510   0.84796
 6.9417   0.96291
 6.9324   0.95771
 6.9232   0.99003
 6.9140   1.02938
 6.9047   0.96849
 6.8956   1.01364
 6.8864   1.09069
 6.8773   1.04455
 6.8682   1.01336
 6.8591   1.09912
 6.8500   1.20869
 6.8410   1.18417
 6.8320   1.18557
 6.8230   1.20727
 6.8140   1.18181
 6.8051   1.08201
 6.7962   1.00068
 6.7873   1.03721
 6.7784   1.12871
 6.7695   1.17159
 6.7607   1.14300
 6.7519   1.10806
 6.7431   1.10217
 6.7344   1.26651
 6.7256   1.37339
 6.7169   1.29694
 6.7082   1.25444
 6.6996   1.24038
 6.6909   1.25113
 6.6823   1.31164
 6.6737   1.27169
 6.6651   1.23482
 6.6566   1.34178
 6.6480   1.42196
 6.6395   1.42599
 6.6310   1.32632
 6.6226   1.33645
 6.6141   1.44007
 6.6057   1.41198
 6.5973   1.38751
 6.5889   1.53726
 6.5805   1.57793
 6.5722   1.50659
 6.5639   1.48666
 6.5556   1.46583
 6.5473   1.53490
 6.5390   1.59111
 6.5308   1.52231
 6.5226   1.53226
 6.5144   1.54217
 6.5062   1.53455
 6.4981   1.56998
 6.4900   1.56762
 6.4818   1.52573
 6.4737   1.59650
 6.4657   1.66368
 6.4576   1.62513
 6.4496   1.63265
 6.4416   1.69641
 6.4336   1.74143
 6.4256   1.77191
 6.4177   1.82326
 6.4097   1.73408
 6.4018   1.77129
 6.3939   1.68277
 6.3860   1.60951
 6.3782   1.75555
 6.3704   1.82874
 6.3625   1.75073
 6.3547   1.74162
 6.3470   1.77287
 6.3392   1.77490
 6.3315   1.82155
 6.3237   1.85515
 6.3160   1.75952
 6.3083   1.77899
 6.3007   1.89192
 6.2930   1.92056
 6.2854   1.93366
 6.2778   1.87295
 6.2702   1.78988
 6.2626   1.89902
 6.2551   1.97740
 6.2476   1.98020
 6.2400   2.04327
 6.2325   2.03378
 6.2251   1.98604
 6.2176   2.03392
 6.2101   1.99142
 6.2027   1.88712
 6.1953   1.97116
 6.1879   2.09389
 6.1805   2.03751
 6.1732   2.06461
 6.1658   2.08985
 6.1585   2.08159
 6.1512   2.14828
 6.1439   2.23020
 6.1367   2.29094
 6.1294   2.18094
 6.1222   2.06173
 6.1149   2.18247
 6.1077   2.20918
 6.1006   2.14584
 6.0934   2.12380
 6.0862   2.04897
 6.0791   2.10780
 6.0720   2.16562
 6.0649   2.12206
 6.0578   2.14269
 6.0507   2.19242
 6.0437   2.10920
 6.0366   2.03179
 6.0296   2.13443
 6.0226   2.09031
 6.0156   1.99372
 6.0087   2.07004
 6.0017   2.13937
 5.9948   2.16427
 5.9878   2.17476
 5.9809   2.17486
 5.9740   2.20968
 5.9672   2.18552
 5.9603   2.14734
 5.9535   2.20375
 5.9466   2.20587
 5.9398   2.24131
 5.9330   2.23252
 5.9262   2.20489
 5.9195   2.17574
 5.9127   2.18602
 5.9060   2.21032
 5.8993   2.23478
 5.8926   2.22389
 5.8859   2.20007
 5.8792   2.21970
 5.8726   2.20149
 5.8659   2.15725
 5.8593   2.17121
 5.8527   2.22500
 5.8461   2.22708
 5.8395   2.18522
 5.8329   2.21325
 5.8264   2.26059
 5.8198   2.24223
 5.8133   2.20359
 5.8068   2.14327
 5.8003   2.17091
 5.7938   2.28484
 5.7874   2.33069
 5.7809   2.36948
 5.7745   2.43510
 5.7680   2.42254
 5.7616   2.36249
 5.7552   2.36353
 5.7489   2.35606
 5.7425   2.32263
 5.7361   2.33204
 5.7298   2.37153
 5.7235   2.42215
 5.7172   2.41210
 5.7109   2.36042
 5.7046   2.35757
 5.6983   2.35009
 5.6921   2.31797
 5.6858   2.36404
 5.6796   2.40912
 5.6734   2.43015
 5.6672   2.44017
 5.6610   2.47540
 5.6548   2.39307
 5.6487   2.33911
 5.6425   2.36354
 5.6364   2.30679
 5.6303   2.26154
 5.6242   2.34626
 5.6181   2.39067
 5.6120   2.43769
 5.6059   2.45066
 5.5999   2.46804
 5.5938   2.46095
 5.5878   2.43393
 5.5818   2.42099
 5.5758   2.42126
 5.5698   2.34291
 5.5638   2.32411
 5.5578   2.40713
 5.5519   2.41217
 5.5460   2.45390
 5.5400   2.46902
 5.5341   2.44393
 5.5282   2.47388
 5.5223   2.47336
 5.5164   2.46642
 5.5106   2.52044
 5.5047   2.46527
 5.4989   2.39955
 5.4931   2.44592
 5.4873   2.49901
 5.4815   2.49756
 5.4757   2.46962
 5.4699   2.45831
 5.4641   2.53880
 5.4584   2.52907
 5.4527   2.52438
 5.4469   2.54262
 5.4412   2.50305
 5.4355   2.55333
 5.4298   2.59810
 5.4241   2.54817
 5.4185   2.47418
 5.4128   2.45034
 5.4072   2.45931
 5.4015   2.50433
 5.3959   2.57891
 5.3903   2.58764
 5.3847   2.54271
 5.3791   2.50727
 5.3735   2.56158
 5.3680   2.51701
 5.3624   2.48655
 5.3569   2.57214
 5.3514   2.63141
 5.3458   2.59028
 5.3403   2.56661
 5.3348   2.60127
 5.3294   2.57998
 5.3239   2.56524
 5.3184   2.61766
 5.3130   2.69145
 5.3075   2.63901
 5.3021   2.56347
 5.2967   2.65139
 5.2913   2.72855
 5.2859   2.67179
 5.2805   2.66107
 5.2751   2.65348
 5.2698   2.62988
 5.2644   2.62588
 5.2591   2.63633
 5.2538   2.65475
 5.2485   2.67056
 5.2431   2.68482
 5.2378   2.65536
 5.2326   2.63974
 5.2273   2.67052
 5.2220   2.69429
 5.2168   2.70361
 5.2115   2.74132
 5.2063   2.69407
 5.2011   2.60342
 5.1959   2.62941
 5.1907   2.64510
 5.1855   2.67707
 5.1803   2.69623
 5.1751   2.73137
 5.1700   2.74283
 5.1648   2.68134
 5.1597   2.66994
 5.1545   2.72171
 5.1494   2.82286
 5.1443   2.89807
 5.1392   2.79762
 5.1341   2.73398
 5.1291   2.76771
 5.1240   2.78500
 5.1189   2.79831
 5.1139   2.76955
 5.1088   2.73248
 5.1038   2.76749
 5.0988   2.89956
 5.0938   2.90635
 5.0888   2.83587
 5.0838   2.88074
 5.0788   2.89675
 5.0738   2.92930
 5.0689   2.87396
 5.0639   2.81306
 5.0590   2.77010
 5.0541   2.76265
 5.0491   2.74852
 5.0442   2.78846
 5.0393   2.82750
 5.0344   2.82549
 5.0296   2.85642
 5.0247   2.84446
 5.0198   2.79438
 5.0150   2.84795
 5.0101   2.92018
 5.0053   2.90877
 5.0004   2.87110
 4.9956   2.87000
 4.9908   2.88661
 4.9860   2.88132
 4.9812   2.97838
 4.9765   3.00067
 4.9717   2.92738
 4.9669   2.89748
 4.9622   2.94782
 4.9574   2.98134
 4.9527   2.91211
 4.9480   2.93703
 4.9432   3.03218
 4.9385   2.95433
 4.9338   2.95053
 4.9291   3.00901
 4.9245   3.05308
 4.9198   3.10982
 4.9151   3.03751
 4.9105   3.00967
 4.9058   2.99748
 4.9012   3.02341
 4.8966   2.95647
 4.8919   2.94632
 4.8873   3.02382
 4.8827   3.00391
 4.8781   3.00015
 4.8736   3.07683
 4.8690   3.11983
 4.8644   3.09771
 4.8599   3.02122
 4.8553   2.97375
 4.8508   2.99300
 4.8462   3.06744
 4.8417   3.10167
 4.8372   3.11335
 4.8327   3.12252
 4.8282   3.11441
 4.8237   3.03712
 4.8192   3.03094
 4.8147   3.09737
 4.8103   3.22117
 4.8058   3.27852
 4.8014   3.24054
 4.7969   3.17701
 4.7925   3.16117
 4.7881   3.22674
 4.7836   3.30907
 4.7792   3.30827
 4.7748   3.29981
 4.7704   3.27438
 4.7660   3.22397
 4.7617   3.19108
 4.7573   3.18226
 4.7530   3.13324
 4.7486   3.16966
 4.7443   3.24894
 4.7399   3.34187
 4.7356   3.39706
 4.7313   3.35249
 4.7270   3.32798
 4.7226   3.19101
 4.7184   3.15575
 4.7141   3.24858
 4.7098   3.26182
 4.7055   3.21422
 4.7012   3.11123
 4.6970   3.13925
 4.6927   3.27516
 4.6885   3.31542
 4.6842   3.24355
 4.6800   3.28535
 4.6758   3.31505
 4.6716   3.28539
 4.6674   3.21300
 4.6632   3.17410
 4.6590   3.31162
 4.6548   3.40607
 4.6506   3.33434
 4.6465   3.34092
 4.6423   3.36639
 4.6382   3.26114
 4.6340   3.29405
 4.6299   3.35872
 4.6258   3.30376
 4.6216   3.28135
 4.6175   3.35218
 4.6134   3.43586
 4.6093   3.41132
 4.6052   3.37658
 4.6011   3.38288
 4.5971   3.42350
 4.5930   3.48479
 4.5889   3.44116
 4.5849   3.39508
 4.5808   3.38664
 4.5768   3.39987
 4.5727   3.50169
 4.5687   3.48511
 4.5647   3.35998
 4.5607   3.43611
 4.5567   3.53410
 4.5526   3.44856
 4.5487   3.40478
 4.5447   3.43705
 4.5407   3.47854
 4.5367   3.50691
 4.5328   3.49362
 4.5288   3.48123
 4.5248   3.46781
 4.5209   3.49567
 4.5170   3.49064
 4.5130   3.55234
 4.5091   3.45703
 4.5052   3.32078
 4.5013   3.33760
 4.4974   3.38995
 4.4935   3.42092
 4.4896   3.49709
 4.4857   3.52567
 4.4818   3.49036
 4.4779   3.42377
 4.4741   3.41485
 4.4702   3.47433
 4.4664   3.47940
 4.4625   3.45376
 4.4587   3.45111
 4.4549   3.50909
 4.4510   3.57768
 4.4472   3.54229
 4.4434   3.45889
 4.4396   3.46339
 4.4358   3.52179
 4.4320   3.43124
 4.4282   3.40715
 4.4245   3.46761
 4.4207   3.53611
 4.4169   3.68902
 4.4132   3.78681
 4.4094   3.69185
 4.4057   3.58222
 4.4019   3.52011
 4.3982   3.51862
 4.3945   3.47935
 4.3907   3.60829
 4.3870   3.70968
 4.3833   3.53532
 4.3796   3.52530
 4.3759   3.66782
 4.3722   3.63050
 4.3685   3.60383
 4.3649   3.68861
 4.3612   3.67454
 4.3575   3.55634
 4.3539   3.52826
 4.3502   3.58672
 4.3466   3.53005
 4.3429   3.51375
 4.3393   3.66049
 4.3357   3.63460
 4.3320   3.67659
 4.3284   3.75506
 4.3248   3.65221
 4.3212   3.54813
 4.3176   3.54361
 4.3140   3.65241
 4.3105   3.74748
 4.3069   3.76336
 4.3033   3.73881
 4.2997   3.79126
 4.2962   3.78891
 4.2926   3.80331
 4.2890   3.79626
 4.2855   3.70710
 4.2820   3.79425
 4.2784   3.85323
 4.2749   3.66469
 4.2714   3.59068
 4.2679   3.71582
 4.2644   3.79968
 4.2609   3.77773
 4.2574   3.69146
 4.2539   3.69637
 4.2504   3.80883
 4.2469   3.79185
 4.2434   3.67961
 4.2400   3.74110
 4.2365   3.77688
 4.2330   3.73177
 4.2296   3.68011
 4.2261   3.66737
 4.2227   3.73592
 4.2193   3.78013
 4.2158   3.79425
 4.2124   3.89847
 4.2090   3.90000
 4.2056   3.90083
 4.2022   3.93772
 4.1988   3.85098
 4.1954   3.73420
 4.1920   3.75071
 4.1886   3.81276
 4.1852   3.88805
 4.1818   3.90088
 4.1785   3.91895
 4.1751   3.90216
 4.1717   3.93257
 4.1684   3.93622
 4.1650   3.93740
 4.1617   3.92064
 4.1584   3.89305
 4.1550   3.87497
 4.1517   3.94876
 4.1484   3.94626
 4.1451   3.87941
 4.1418   3.95410
 4.1384   4.07512
 4.1351   3.98351
 4.1319   3.93348
 4.1286   3.94219
 4.1253   3.93358
 4.1220   3.91275
 4.1187   3.87056
 4.1155   3.99441
 4.1122   4.16024
 4.1089   4.15347
 4.1057   4.02115
 4.1024   3.78144
 4.0992   3.79824
 4.0959   4.01407
 4.0927   4.15925
 4.0895   4.08135
 4.0863   4.06097
 4.0830   4.06639
 4.0798   4.03675
 4.0766   4.10555
 4.0734   4.14679
 4.0702   4.06648
 4.0670   3.98025
 4.0639   4.01571
 4.0607   4.14302
 4.0575   4.19187
 4.0543   4.06158
 4.0511   3.97319
 4.0480   3.95158
 4.0448   4.00837
 4.0417   4.13734
 4.0385   4.08101
 4.0354   4.09697
 4.0323   4.12882
 4.0291   4.07397
 4.0260   4.06585
 4.0229   4.07320
 4.0197   4.15433
 4.0166   4.20407
 4.0135   4.14412
 4.0104   4.11242
 4.0073   3.98670
 4.0042   3.95669
 4.0011   4.15064
 3.9981   4.24293
 3.9950   4.18454
 3.9919   4.10007
 3.9888   4.08950
 3.9857   4.18368
 3.9827   4.13316
 3.9796   4.08216
 3.9766   4.14153
 3.9735   4.05365
 3.9705   4.03590
 3.9675   4.11269
 3.9644   4.13292
 3.9614   4.12696
 3.9584   4.08950
 3.9554   4.18149
 3.9523   4.23717
 3.9493   4.08209
 3.9463   4.07838
 3.9433   4.15332
 3.9403   4.05255
 3.9373   4.08278
 3.9343   4.20764
 3.9314   4.28951
 3.9284   4.25485
 3.9254   4.16110
 3.9224   4.11006
 3.9195   4.07905
 3.9165   4.05785
 3.9136   4.11095
 3.9106   4.12666
 3.9077   4.20411
 3.9047   4.24901
 3.9018   4.19143
 3.8988   4.05668
 3.8959   4.01841
 3.8930   4.00929
 3.8901   4.05802
 3.8872   4.28240
 3.8842   4.44007
 3.8813   4.39309
 3.8784   4.20464
 3.8755   4.13873
 3.8726   4.17887
 3.8697   4.29556
 3.8669   4.34510
 3.8640   4.16593
 3.8611   4.15375
 3.8582   4.30824
 3.8554   4.46687
 3.8525   4.39140
 3.8496   4.21157
 3.8468   4.23650
 3.8439   4.26791
 3.8411   4.23491
 3.8382   4.13942
 3.8354   4.20937
 3.8326   4.30566
 3.8297   4.17064
 3.8269   4.11846
 3.8241   4.14500
 3.8213   4.17189
 3.8185   4.25004
 3.8157   4.15655
 3.8128   4.01610
 3.8100   4.08967
 3.8072   4.16507
 3.8045   4.19436
 3.8017   4.24454
 3.7989   4.22767
 3.7961   4.16874
 3.7933   4.15947
 3.7906   4.19504
 3.7878   4.17896
 3.7850   4.23073
 3.7822   4.22568
 3.7795   4.06751
 3.7767   4.06537
 3.7740   4.24724
 3.7713   4.25048
 3.7685   4.20710
 3.7658   4.32271
 3.7630   4.22182
 3.7603   4.16951
 3.7576   4.24963
 3.7549   4.28547
 3.7521   4.16843
 3.7494   4.17322
 3.7467   4.19086
 3.7440   4.25653
 3.7413   4.30088
 3.7386   4.35690
 3.7359   4.28480
 3.7332   4.19121
 3.7306   4.25472
 3.7279   4.22484
 3.7252   4.17286
 3.7225   4.16517
 3.7199   4.09373
 3.7172   4.12429
 3.7145   4.20584
 3.7119   4.14005
 3.7092   4.15450
 3.7066   4.24817
 3.7039   4.17291
 3.7013   4.10609
 3.6986   4.16869
 3.6960   4.16142
 3.6934   4.11689
 3.6907   4.17882
 3.6881   4.18531
 3.6855   4.21617
 3.6829   4.26256
 3.6803   4.22307
 3.6776   4.25684
 3.6750   4.37585
 3.6724   4.33539
 3.6698   4.12633
 3.6672   4.08468
 3.6646   4.25433
 3.6620   4.31097
 3.6595   4.18733
 3.6569   4.15846
 3.6543   4.11958
 3.6517   4.03286
 3.6492   4.19621
 3.6466   4.38125
 3.6440   4.32897
 3.6415   4.22796
 3.6389   4.25855
 3.6364   4.19509
 3.6338   4.18358
 3.6313   4.30806
 3.6287   4.35235
 3.6262   4.33576
 3.6237   4.37178
 3.6211   4.31864
 3.6186   4.23780
 3.6161   4.21175
 3.6136   4.38800
 3.6111   4.41200
 3.6085   4.33833
 3.6060   4.47409
 3.6035   4.49849
 3.6010   4.36399
 3.5985   4.28869
 3.5960   4.21529
 3.5935   4.18569
 3.5910   4.17760
 3.5886   4.20503
 3.5861   4.14235
 3.5836   4.20222
 3.5811   4.09837
 3.5787   4.16474
 3.5762   4.39305
 3.5737   4.29901
 3.5713   4.18673
 3.5688   4.33290
 3.5663   4.37282
 3.5639   4.20497
 3.5614   4.13710
 3.5590   4.17323
 3.5566   4.29415
 3.5541   4.35810
 3.5517   4.24276
 3.5493   4.19483
 3.5468   4.23090
 3.5444   4.28234
 3.5420   4.20198
 3.5396   4.15757
 3.5372   4.17365
 3.5347   4.19970
 3.5323   4.33227
 3.5299   4.31779
 3.5275   4.27454
 3.5251   4.43792
 3.5227   4.51808
 3.5203   4.35219
 3.5180   4.37132
 3.5156   4.48442
 3.5132   4.32029
 3.5108   4.14344
 3.5084   4.14483
 3.5061   4.21863
 3.5037   4.08388
 3.5013   4.17511
 3.4990   4.37451
 3.4966   4.33209
 3.4943   4.23071
 3.4919   4.16510
 3.4895   4.22710
 3.4872   4.25822
 3.4849   4.29990
 3.4825   4.33832
 3.4802   4.29847
 3.4778   4.26261
 3.4755   4.21712
 3.4732   4.11577
 3.4709   3.97888
 3.4685   3.92861
 3.4662   4.03571
 3.4639   4.11734
 3.4616   3.99853
 3.4593   4.11435
 3.4570   4.39941
 3.4547   4.54370
 3.4524   4.49723
 3.4501   4.43984
 3.4478   4.31828
 3.4455   4.18002
 3.4432   4.25802
 3.4409   4.46287
 3.4386   4.42103
 3.4364   4.11892
 3.4341   3.98547
 3.4318   4.09809
 3.4295   4.38635
 3.4273   4.31796
 3.4250   4.10023
 3.4228   4.15345
 3.4205   4.18765
 3.4182   4.26052
 3.4160   4.47962
 3.4137   4.51480
 3.4115   4.49109
 3.4093   4.39539
 3.4070   4.30491
 3.4048   4.23489
 3.4025   4.01300
 3.4003   4.06268
 3.3981   4.35547
 3.3958   4.36871
 3.3936   4.03583
 3.3914   4.06844
 3.3892   4.19653
 3.3870   4.03808
 3.3848   4.09862
 3.3826   4.29194
 3.3804   4.35744
 3.3782   4.45371
 3.3760   4.32330
 3.3738   4.29708
 3.3716   4.15894
 3.3694   3.95971
 3.3672   4.12846
 3.3650   4.20113
 3.3628   4.21919
 3.3606   4.28426
 3.3585   4.26228
 3.3563   3.98772
 3.3541   4.01415
 3.3520   4.37451
 3.3498   4.50153
 3.3476   4.54367
 3.3455   4.25742
 3.3433   4.03126
 3.3411   4.07015
 3.3390   4.26602
 3.3369   4.16681
 3.3347   4.02320
 3.3326   4.12510
 3.3304   4.14111
 3.3283   4.23060
 3.3262   4.16937
 3.3240   4.26153
 3.3219   4.25466
 3.3198   4.20000
 3.3176   4.18179
 3.3155   3.99797
 3.3134   4.01443
 3.3113   4.24023
 3.3092   4.33717
 3.3071   4.18829
 3.3049   4.19776
 3.3028   4.14656
 3.3007   3.96113
 3.2986   4.15088
 3.2965   4.29862
 3.2944   4.23296
 3.2924   4.10345
 3.2903   4.11153
 3.2882   4.33076
 3.2861   4.20535
 3.2840   4.12702
 3.2819   4.15063
 3.2799   4.26342
 3.2778   4.38830
 3.2757   4.26523
 3.2736   4.25166
 3.2716   4.22331
 3.2695   4.30815
 3.2675   4.30069
 3.2654   4.07252
 3.2634   4.09426
 3.2613   4.04022
 3.2593   3.96648
 3.2572   4.09221
 3.2552   4.25465
 3.2531   4.28361
 3.2511   4.29398
 3.2490   4.31492
 3.2470   3.92029
 3.2450   3.83477
 3.2429   3.90258
 3.2409   4.01172
 3.2389   4.19884
 3.2369   4.21666
 3.2348   4.27265
 3.2328   4.35832
 3.2308   4.28038
 3.2288   4.22671
 3.2268   4.38882
 3.2248   4.36537
 3.2228   4.23188
 3.2208   4.19959
 3.2188   4.23959
 3.2168   3.97382
 3.2148   3.92289
 3.2128   4.22006
 3.2108   4.33413
 3.2088   4.23118
 3.2068   3.98210
 3.2049   3.76324
 3.2029   3.81770
 3.2009   3.84215
 3.1989   3.89337
 3.1970   4.25719
 3.1950   4.31511
 3.1930   3.98592
 3.1911   3.90500
 3.1891   4.12338
 3.1871   4.25908
 3.1852   4.34112
 3.1832   4.21548
 3.1813   4.25519
 3.1793   4.17224
 3.1774   3.95707
 3.1754   4.00975
 3.1735   3.93649
 3.1715   3.90947
 3.1696   4.15379
 3.1677   4.29698
 3.1657   4.26148
 3.1638   4.30112
 3.1619   4.16015
 3.1599   4.03159
 3.1580   4.03190
 3.1561   4.18567
 3.1542   4.02362
 3.1523   4.02906
 3.1503   4.04920
 3.1484   3.95487
 3.1465   3.99520
 3.1446   4.09429
 3.1427   3.95648
 3.1408   4.08603
 3.1389   4.12952
 3.1370   4.24403
 3.1351   4.24311
 3.1332   4.19049
 3.1313   4.30577
 3.1294   4.20600
 3.1275   4.20899
 3.1257   4.37720
 3.1238   4.22733
 3.1219   4.26317
 3.1200   4.35690
 3.1181   4.27950
 3.1163   4.15591
 3.1144   3.91485
 3.1125   3.78866
 3.1107   3.87889
 3.1088   3.81530
 3.1069   3.71014
 3.1051   3.95398
 3.1032   4.12115
 3.1014   3.72251
 3.0995   3.60199
 3.0976   3.59880
 3.0958   3.56758
 3.0940   4.01346
 3.0921   4.29803
 3.0903   3.94052
 3.0884   3.81405
 3.0866   4.11861
 3.0848   4.29834
 3.0829   4.29457
 3.0811   4.26247
 3.0793   4.18563
 3.0774   4.03990
 3.0756   3.79145
 3.0738   3.74626
 3.0720   3.76051
 3.0701   3.80386
 3.0683   3.77385
 3.0665   3.84418
 3.0647   4.08228
 3.0629   4.19110
 3.0611   4.23899
 3.0593   4.39288
 3.0575   4.41244
 3.0557   4.22215
 3.0539   3.84158
 3.0521   3.63376
 3.0503   3.85334
 3.0485   3.98686
 3.0467   3.89441
 3.0449   3.72507
 3.0431   3.92956
 3.0413   4.03941
 3.0396   3.88048
 3.0378   3.61464
 3.0360   3.54841
 3.0342   3.81694
 3.0324   4.08495
 3.0307   4.20757
 3.0289   4.13239
 3.0271   3.97077
 3.0254   3.85036
 3.0236   3.83545
 3.0218   3.88980
 3.0201   4.27615
 3.0183   4.39805
 3.0166   4.18930
 3.0148   4.33353
 3.0130   4.38726
 3.0113   4.14097
 3.0096   4.39460
 3.0078   4.60725
 3.0061   4.24067
 3.0043   4.01597
 3.0026   4.16149
 3.0008   4.10852
 2.9991   3.86184
 2.9974   3.97018
 2.9956   3.93788
 2.9939   3.87146
 2.9922   3.99100
 2.9905   4.05843
 2.9887   4.10518
 2.9870   4.20115
 2.9853   3.95956
 2.9836   3.97254
 2.9819   4.14507
 2.9802   4.15886
 2.9784   3.88734
 2.9767   3.75804
 2.9750   3.94244
 2.9733   4.38932
 2.9716   4.73415
 2.9699   4.62527
 2.9682   4.18195
 2.9665   3.99788
 2.9648   4.01798
 2.9631   4.26117
 2.9614   4.48463
 2.9597   4.35150
 2.9581   4.07831
 2.9564   3.77801
 2.9547   3.82314
 2.9530   4.22137
 2.9513   4.13640
 2.9496   3.76249
 2.9480   3.94701
 2.9463   3.82918
 2.9446   3.69082
 2.9429   4.09608
 2.9413   4.40138
 2.9396   4.54279
 2.9379   4.31691
 2.9363   4.05179
 2.9346   4.15148
 2.9330   4.17249
 2.9313   3.96965
 2.9296   3.99120
 2.9280   4.24285
 2.9263   4.26722
 2.9247   4.05621
 2.9230   3.99690
 2.9214   3.85812
 2.9197   4.03724
 2.9181   4.14605
 2.9165   4.29756
 2.9148   4.22824
 2.9132   3.81938
 2.9116   4.06819
 2.9099   4.38193
 2.9083   4.39621
 2.9067   4.23815
 2.9050   4.35821
 2.9034   4.52593
 2.9018   4.09494
 2.9002   3.89460
 2.8985   3.89878
 2.8969   3.89443
 2.8953   4.05501
 2.8937   4.26630
 2.8921   4.13517
 2.8905   3.94965
 2.8888   3.76820
 2.8872   3.70097
 2.8856   3.99816
 2.8840   4.19259
 2.8824   4.17848
 2.8808   3.96650
 2.8792   4.28303
 2.8776   4.17458
 2.8760   4.03898
 2.8744   4.18350
 2.8728   4.09431
 2.8712   4.12658
 2.8697   4.50234
 2.8681   4.58648
 2.8665   4.28806
 2.8649   4.07804
 2.8633   4.22593
 2.8617   4.20651
 2.8602   3.73424
 2.8586   3.54926
 2.8570   3.96172
 2.8554   4.31538
 2.8539   3.88932
 2.8523   3.68341
 2.8507   3.84345
 2.8492   4.04321
 2.8476   4.04601
 2.8460   4.04337
 2.8445   4.15520
 2.8429   4.34089
 2.8413   4.06142
 2.8398   3.72484
 2.8382   3.62380
 2.8367   3.91388
 2.8351   3.86476
 2.8336   3.80309
 2.8320   3.92240
 2.8305   3.68043
 2.8289   3.55977
 2.8274   3.89468
 2.8259   4.35150
 2.8243   4.30033
 2.8228   3.94956
 2.8213   4.12285
 2.8197   4.36711
 2.8182   4.36191
 2.8167   4.31580
 2.8151   4.32660
 2.8136   3.90672
 2.8121   3.56934
 2.8106   3.97435
 2.8090   3.42667
 2.8075   3.08683
 2.8060   3.59763
 2.8045   4.20688
 2.8030   4.23138
 2.8014   4.03619
 2.7999   4.56376
 2.7984   4.37993
 2.7969   3.37442
 2.7954   3.48757
 2.7939   4.22684
 2.7924   4.56708
 2.7909   4.27879
 2.7894   3.67757
 2.7879   3.69790
 2.7864   3.91056
 2.7849   4.05106
 2.7834   4.64909
 2.7819   4.60205
 2.7804   3.97027
 2.7789   3.90734
 2.7774   3.66352
 2.7759   3.61927
 2.7745   3.73337
 2.7730   3.39505
 2.7715   3.61169
 2.7700   3.94332
 2.7685   3.90177
 2.7671   3.95853
 2.7656   3.76660
 2.7641   3.48487
 2.7626   3.82700
 2.7612   4.13266
 2.7597   3.88313
 2.7582   3.69800
 2.7568   3.97571
 2.7553   4.20522
 2.7538   4.21775
 2.7524   4.12824
 2.7509   4.22451
 2.7494   4.49022
 2.7480   4.16978
 2.7465   3.92494
 2.7451   3.79847
 2.7436   3.94953
 2.7422   4.30552
 2.7407   4.16352
 2.7393   4.12438
 2.7378   4.11229
 2.7364   3.97284
 2.7350   3.71331
 2.7335   3.57752
 2.7321   3.64245
 2.7306   3.67827
 2.7292   3.90951
 2.7278   4.20483
 2.7263   4.13963
 2.7249   3.75085
 2.7235   3.50220
 2.7220   3.61340
 2.7206   3.79920
 2.7192   3.93180
 2.7178   4.14155
 2.7163   4.18856
 2.7149   4.27870
 2.7135   4.11683
 2.7121   4.10852
 2.7106   4.21705
 2.7092   4.36761
 2.7078   4.22149
 2.7064   4.09421
 2.7050   3.99831
 2.7036   3.87300
 2.7022   4.09512
 2.7008   4.24827
 2.6994   4.33706
 2.6980   4.57011
 2.6965   4.56733
 2.6951   4.33939
 2.6938   4.35406
 2.6923   4.16413
 2.6910   4.10101
 2.6896   4.23394
 2.6882   4.57704
 2.6868   4.71980
 2.6854   4.49555
 2.6840   4.49397
 2.6826   4.68838
 2.6812   4.62744
 2.6798   4.49743
 2.6784   4.52559
 2.6771   4.52525
 2.6757   4.85519
 2.6743   4.96416
 2.6729   4.55382
 2.6715   4.39142
 2.6702   4.22157
 2.6688   4.36300
 2.6674   5.02225
 2.6660   5.14618
 2.6647   4.72336
 2.6633   4.26528
 2.6619   4.37904
 2.6606   4.81082
 2.6592   4.77938
 2.6578   4.61720
 2.6565   4.39651
 2.6551   4.27665
 2.6538   4.29639
 2.6524   4.76707
 2.6511   5.02619
 2.6497   4.63196
 2.6484   4.26847
 2.6470   4.32655
 2.6456   4.30757
 2.6443   4.87525
 2.6429   4.94337
 2.6416   4.58941
 2.6403   4.31844
 2.6389   4.41680
 2.6376   4.60128
 2.6362   4.77230
 2.6349   5.08463
 2.6336   5.28460
 2.6322   5.39146
 2.6309   5.12280
 2.6296   4.53895
 2.6282   4.39727
 2.6269   4.54521
 2.6256   4.69158
 2.6242   4.73091
 2.6229   4.31401
 2.6216   4.33413
 2.6203   4.29664
 2.6189   4.02162
 2.6176   4.02086
 2.6163   4.29026
 2.6150   4.55267
 2.6136   4.54634
 2.6123   4.37270
 2.6110   4.16259
 2.6097   4.07367
 2.6084   4.53587
 2.6071   5.08307
 2.6058   5.18166
 2.6044   4.88936
 2.6031   4.77204
 2.6018   4.93491
 2.6005   4.85673
 2.5992   4.59059
 2.5979   4.51611
 2.5966   4.46367
 2.5953   4.62791
 2.5940   4.66908
 2.5927   4.53869
 2.5914   4.36817
 2.5901   4.69838
 2.5888   5.10831
 2.5876   5.35820
 2.5863   4.98040
 2.5850   4.89371
 2.5837   4.69488
 2.5824   4.17214
 2.5811   4.34162
 2.5798   4.45684
 2.5785   4.68709
 2.5773   4.88851
 2.5760   4.62022
 2.5747   4.70921
 2.5734   5.16060
 2.5722   5.05437
 2.5709   4.88262
 2.5696   4.93487
 2.5683   4.60868
 2.5671   4.59159
 2.5658   4.42917
 2.5645   3.89602
 2.5633   3.73047
 2.5620   3.96627
 2.5607   4.55347
 2.5595   4.70862
 2.5582   4.44007
 2.5569   4.63566
 2.5557   4.79123
 2.5544   4.60342
 2.5532   4.46676
 2.5519   4.73359
 2.5507   4.98437
 2.5494   4.84057
 2.5481   4.61431
 2.5469   4.20205
 2.5456   4.69668
 2.5444   4.84314
 2.5431   4.28661
 2.5419   4.19168
 2.5406   4.52333
 2.5394   5.06163
 2.5382   5.10268
 2.5369   5.18028
 2.5357   5.16794
 2.5344   4.76940
 2.5332   4.38383
 2.5320   4.62638
 2.5307   4.77927
 2.5295   4.54698
 2.5283   4.33421
 2.5270   4.43929
 2.5258   4.78773
 2.5246   5.37580
 2.5233   4.88748
 2.5221   4.44238
 2.5209   4.62611
 2.5197   4.74051
 2.5184   4.63218
 2.5172   4.56516
 2.5160   4.90135
 2.5148   5.12006
 2.5136   5.02918
 2.5123   5.22599
 2.5111   4.98811
 2.5099   4.83840
 2.5087   5.04645
 2.5075   4.73428
 2.5063   4.58469
 2.5051   4.46322
 2.5038   4.54854
 2.5026   4.80826
 2.5014   4.76657
 2.5002   4.68160
 2.4990   4.24235
 2.4978   3.88331
 2.4966   3.99403
 2.4954   4.51607
 2.4942   4.87591
 2.4930   4.48681
 2.4918   4.20702
 2.4906   4.63380
 2.4894   5.09603
 2.4882   5.22198
 2.4870   5.01412
 2.4858   4.79730
 2.4846   4.71498
 2.4835   4.73666
 2.4823   4.44458
 2.4811   4.22921
 2.4799   4.51557
 2.4787   4.98844
 2.4775   4.82296
 2.4764   4.57922
 2.4752   4.75375
 2.4740   5.12755
 2.4728   5.10225
 2.4716   4.85944
 2.4705   4.63357
 2.4693   4.78000
 2.4681   4.89065
 2.4669   4.88708
 2.4657   4.65586
 2.4646   4.57156
 2.4634   4.74103
 2.4622   4.39000
 2.4611   4.33157
 2.4599   5.21688
 2.4587   5.68172
 2.4576   4.97796
 2.4564   4.43924
 2.4552   4.66224
 2.4541   4.70328
 2.4529   4.65724
 2.4518   4.61286
 2.4506   4.39173
 2.4494   4.61563
 2.4483   5.06837
 2.4471   5.04413
 2.4460   4.85811
 2.4448   4.72971
 2.4437   4.57163
 2.4425   4.52618
 2.4414   4.71707
 2.4402   4.51712
 2.4391   4.20925
 2.4379   4.45168
 2.4368   4.83083
 2.4356   4.82730
 2.4345   5.23185
 2.4333   5.17097
 2.4322   5.11545
 2.4311   5.01279
 2.4299   4.35603
 2.4288   4.15916
 2.4276   4.59128
 2.4265   4.75042
 2.4254   4.54445
 2.4242   4.15347
 2.4231   4.56544
 2.4220   4.65341
 2.4209   4.21987
 2.4197   4.47222
 2.4186   4.75177
 2.4175   4.56297
 2.4163   4.92346
 2.4152   4.88166
 2.4141   4.96454
 2.4130   5.48208
 2.4118   5.45176
 2.4107   5.07244
 2.4096   4.95642
 2.4085   4.89488
 2.4074   4.59865
 2.4063   4.69351
 2.4051   5.08822
 2.4040   4.78635
 2.4029   4.69193
 2.4018   4.95734
 2.4007   4.95208
 2.3996   4.35371
 2.3985   4.20609
 2.3973   5.00030
 2.3962   5.29381
 2.3951   4.69743
 2.3940   4.38734
 2.3929   4.72456
 2.3918   4.38840
 2.3907   4.64051
 2.3896   4.82577
 2.3885   4.68847
 2.3874   4.81243
 2.3863   4.94483
 2.3852   4.64938
 2.3841   4.35564
 2.3830   4.54416
 2.3819   4.59609
 2.3808   4.76270
 2.3798   5.02310
 2.3786   5.11032
 2.3776   5.03867
 2.3765   4.69597
 2.3754   4.64447
 2.3743   5.26992
 2.3732   5.59743
 2.3721   5.01649
 2.3710   5.20563
 2.3700   5.14809
 2.3689   4.51909
 2.3678   5.00905
 2.3667   5.26851
 2.3656   4.99199
 2.3645   4.91176
 2.3635   4.70583
 2.3624   4.52827
 2.3613   4.46572
 2.3603   4.56907
 2.3592   4.65577
 2.3581   4.49812
 2.3570   4.21009
 2.3560   4.59720
 2.3549   4.28998
 2.3538   3.92992
 2.3527   4.18888
 2.3517   4.84616
 2.3506   5.20150
 2.3495   4.77720
 2.3485   4.53349
 2.3474   4.75082
 2.3464   5.10844
 2.3453   5.08620
 2.3442   4.51913
 2.3432   3.96438
 2.3421   4.53966
 2.3411   4.92903
 2.3400   4.85177
 2.3390   5.20784
 2.3379   5.07872
 2.3369   4.43046
 2.3358   4.29534
 2.3347   4.98468
 2.3337   5.04109
 2.3326   4.39078
 2.3316   4.29565
 2.3306   4.96991
 2.3295   5.10221
 2.3285   4.89045
 2.3274   4.49386
 2.3264   4.23715
 2.3253   4.59282
 2.3243   4.87476
 2.3232   4.95480
 2.3222   5.29727
 2.3212   5.45618
 2.3201   5.50389
 2.3191   5.43948
 2.3180   5.38127
 2.3170   4.89791
 2.3160   4.75470
 2.3149   4.71316
 2.3139   5.08299
 2.3129   5.42896
 2.3118   5.58050
 2.3108   4.82663
 2.3098   4.05121
 2.3088   4.63797
 2.3077   5.19752
 2.3067   4.81228
 2.3057   4.41625
 2.3047   4.62827
 2.3036   4.80444
 2.3026   4.78303
 2.3016   4.30578
 2.3006   4.28066
 2.2995   4.97872
 2.2985   4.60615
 2.2975   4.09724
 2.2965   4.53952
 2.2955   5.34877
 2.2944   5.30826
 2.2934   5.19163
 2.2924   4.27951
 2.2914   4.07277
 2.2904   4.48515
 2.2894   4.15019
 2.2884   3.63060
 2.2874   4.58027
 2.2864   5.29470
 2.2854   5.42321
 2.2843   5.15746
 2.2833   4.61535
 2.2823   4.74287
 2.2813   4.85810
 2.2803   5.08423
 2.2793   5.48558
 2.2783   5.59779
 2.2773   4.85405
 2.2763   4.34894
 2.2753   4.89096
 2.2743   5.06738
 2.2733   5.15038
 2.2723   5.36433
 2.2713   5.26416
 2.2703   4.44951
 2.2694   4.30630
 2.2684   4.97902
 2.2674   4.93637
 2.2664   4.32816
 2.2654   4.27438
 2.2644   4.47814
 2.2634   4.56842
 2.2624   4.42723
 2.2614   3.94119
 2.2605   4.35824
 2.2595   4.72203
 2.2585   5.23961
 2.2575   5.37013
 2.2565   4.87926
 2.2555   4.53866
 2.2546   4.73092
 2.2536   5.53083
 2.2526   5.55886
 2.2516   4.78180
 2.2506   4.11681
 2.2497   4.62747
 2.2487   4.93915
 2.2477   4.78425
 2.2467   4.61083
 2.2458   4.37824
 2.2448   4.18261
 2.2438   4.42281
 2.2428   4.78447
 2.2419   5.02476
 2.2409   5.61764
 2.2399   5.35154
 2.2390   4.70127
 2.2380   4.24110
 2.2370   4.04665
 2.2361   4.07023
 2.2351   4.28309
 2.2342   4.75645
 2.2332   4.81855
 2.2322   4.41482
 2.2313   4.38207
 2.2303   4.20214
 2.2294   4.19533
 2.2284   4.34597
 2.2274   4.68001
 2.2265   5.62008
 2.2255   5.49708
 2.2246   4.77247
 2.2236   4.35267
 2.2227   4.37948
 2.2217   5.03993
 2.2208   4.92169
 2.2198   3.85759
 2.2189   4.46859
 2.2179   5.31354
 2.2170   5.51620
 2.2160   5.66317
 2.2151   5.15032
 2.2141   4.71299
 2.2132   4.71288
 2.2122   4.80438
 2.2113   4.65937
 2.2103   4.23808
 2.2094   4.08791
 2.2085   4.43613
 2.2075   4.83041
 2.2066   4.06860
 2.2056   3.73844
 2.2047   4.18250
 2.2038   4.42484
 2.2028   4.99842
 2.2019   5.67049
 2.2010   5.49642
 2.2000   5.64522
 2.1991   5.47215
 2.1982   4.58598
 2.1972   4.46649
 2.1963   5.04127
 2.1954   5.54299
 2.1944   5.90456
 2.1935   5.54054
 2.1926   4.63806
 2.1917   3.39856
 2.1907   3.44580
 2.1898   4.24988
 2.1889   4.77478
 2.1880   4.68564
 2.1870   4.88861
 2.1861   5.04497
 2.1852   5.29947
 2.1843   5.29983
 2.1833   4.60353
 2.1824   4.98254
 2.1815   4.98060
 2.1806   4.72987
 2.1797   4.90432
 2.1788   5.20643
 2.1778   5.09938
 2.1769   4.48438
 2.1760   4.13851
 2.1751   3.94975
 2.1742   4.08626
 2.1733   4.27712
 2.1724   4.40225
 2.1715   5.49744
 2.1706   5.59832
 2.1696   5.23197
 2.1687   5.67624
 2.1678   5.41465
 2.1669   4.56017
 2.1660   4.33069
 2.1651   4.17511
 2.1642   4.42939
 2.1633   4.63757
 2.1624   4.16433
 2.1615   4.29210
 2.1606   4.44034
 2.1597   4.52173
 2.1588   5.26593
 2.1579   5.48937
 2.1570   5.57997
 2.1561   5.63585
 2.1552   5.50311
 2.1543   5.28614
 2.1534   4.26150
 2.1525   4.03819
 2.1517   4.83053
 2.1507   4.81446
 2.1499   4.78528
 2.1490   4.11782
 2.1481   4.34234
 2.1472   5.39974
 2.1463   5.45567
 2.1454   5.00169
 2.1445   5.23603
 2.1436   5.14248
 2.1428   4.76625
 2.1419   4.61990
 2.1410   5.19844
 2.1401   5.21194
 2.1392   3.50058
 2.1383   3.31208
 2.1375   3.86628
 2.1366   4.47544
 2.1357   4.63432
 2.1348   4.85281
 2.1339   5.26249
 2.1331   4.14107
 2.1322   3.55395
 2.1313   3.24911
 2.1304   3.69392
 2.1296   4.55470
 2.1287   5.38289
 2.1278   5.06003
 2.1269   4.87627
 2.1261   5.19694
 2.1252   5.33004
 2.1243   5.11157
 2.1235   4.56751
 2.1226   4.52576
 2.1217   5.35732
 2.1208   5.01052
 2.1200   4.37145
 2.1191   5.40695
 2.1183   5.69240
 2.1174   6.01461
 2.1165   6.13465
 2.1157   4.13350
 2.1148   3.29367
 2.1139   4.14918
 2.1131   5.68370
 2.1122   5.28026
 2.1113   4.28963
 2.1105   4.78256
 2.1096   5.26589
 2.1088   4.67758
 2.1079   4.75739
 2.1071   4.26046
 2.1062   4.48913
 2.1054   4.53622
 2.1045   3.75289
 2.1036   4.80419
 2.1028   6.08448
 2.1019   5.67865
 2.1011   4.86597
 2.1002   5.23836
 2.0994   5.86118
 2.0985   6.41087
 2.0977   5.58208
 2.0968   4.39739
 2.0960   3.69834
 2.0951   4.40124
 2.0943   5.12466
 2.0934   5.35658
 2.0926   4.96620
 2.0918   5.10247
 2.0909   5.00119
 2.0901   4.40557
 2.0892   4.17476
 2.0884   3.66817
 2.0875   4.14093
 2.0867   4.78010
 2.0859   4.34824
 2.0850   3.46369
 2.0842   4.39739
 2.0833   5.34041
 2.0825   5.64593
 2.0817   5.46431
 2.0808   5.34717
 2.0800   4.45929
 2.0792   4.12180
 2.0783   4.69288
 2.0775   4.43584
 2.0767   4.03581
 2.0759   4.57828
 2.0750   4.99064
 2.0742   4.83837
 2.0734   4.62404
 2.0725   4.20343
 2.0717   5.55794
 2.0709   6.23171
 2.0701   6.53233
 2.0692   6.41844
 2.0684   5.08425
 2.0676   5.03347
 2.0667   4.67225
 2.0659   4.04569
 2.0651   4.24279
 2.0643   4.13109
 2.0635   3.67069
 2.0626   4.16337
 2.0618   5.42403
 2.0610   4.77858
 2.0602   2.98840
 2.0594   4.19397
 2.0585   5.66535
 2.0577   4.99968
 2.0569   4.49196
 2.0561   4.23832
 2.0553   3.59545
 2.0545   4.60238
 2.0537   5.52442
 2.0528   3.56445
 2.0520   2.98441
 2.0512   4.91510
 2.0504   5.13948
 2.0496   5.26949
 2.0488   5.13017
 2.0480   4.19173
 2.0472   3.65089
 2.0464   3.08526
 2.0456   4.10004
 2.0447   4.50215
 2.0439   4.95576
 2.0431   4.95861
 2.0423   4.20868
 2.0415   4.16151
 2.0407   4.96250
 2.0399   5.50909
 2.0391   6.70217
 2.0383   5.32420
 2.0375   4.50851
 2.0367   4.37243
 2.0359   4.77290
 2.0351   5.13043
 2.0343   4.69006
 2.0335   4.97085
 2.0327   5.13803
 2.0319   5.06659
 2.0311   4.23352
 2.0303   4.17847
 2.0295   4.47893
 2.0287   3.51289
 2.0280   3.35372
 2.0272   5.45539
 2.0264   5.02052
 2.0256   3.54573
 2.0248   4.41306
 2.0240   5.18559
 2.0232   4.42772
 2.0224   3.92841
 2.0216   4.31042
 2.0208   5.25554
 2.0200   5.06005
 2.0193   3.31155
 2.0185   3.75681
 2.0177   5.09676
 2.0169   6.28414
 2.0161   7.04621
 2.0153   4.83613
 2.0146   3.91788
 2.0138   4.72524
 2.0130   4.88506
 2.0122   4.24978
 2.0114   3.89653
 2.0107   4.46048
 2.0099   5.95190
 2.0091   6.86416
 2.0083   5.55406
 2.0075   5.47724
 2.0068   6.12391
 2.0060   5.02554
 2.0052   2.56122
 2.0044   3.64676
 2.0037   6.24017
 2.0029   5.32905
 2.0021   4.34640
 2.0013   3.40924
 2.0006   3.50580
 1.9998   3.38556
