Name:  Limestone CaCO3
Type:  Rock
Class:  Sedimentary
Subclass: Limestone 
Particle Size:  Whole rock chips
Sample No.:  ro337
Owner:  Larry Rowan, USGS
Wavelength range:  VNIR SWIR IR
Origin:  Ronda, Spain

Description:  Gray limestone 





Measurement:  Reflectance
First Column:  X
Second Column:  Y
X Units:  Wavelength (micrometers)
Y Units:  Reflectance (percent)
First X Value:  0.4
Last X Value:  14.01309
Number of X Values:  2826
Additional Information:  ls337a.txt

0.4	            .252000
0.401	        .250000
0.402	        .250000
0.403	        .249000
0.404	        .248000
0.405	        .249000
0.406	        .252000
0.407	        .249000
0.408	        .250000
0.409	        .249000
0.41	        .249000
0.411	        .249000
0.412	        .249000
0.413	        .249000
0.414	        .248000
0.415	        .249000
0.416	        .249000
0.417	        .249000
0.418	        .248000
0.419	        .249000
0.42	        .248000
0.421	        .249000
0.422	        .249000
0.423	        .249000
0.424	        .250000
0.425	        .250000
0.426	        .250000
0.427	        .248000
0.428	        .249000
0.429	        .249000
0.43	        .250000
0.431	        .250000
0.432	        .252000
0.433	        .252000
0.434	        .252000
0.435	        .252000
0.436	        .253000
0.437	        .252000
0.438	        .252000
0.439	        .250000
0.44	        .252000
0.441	        .252000
0.442	        .252000
0.443	        .253000
0.444	        .254000
0.445	        .254000
0.446	        .254000
0.447	        .254000
0.448	        .253000
0.449	        .254000
0.45	        .255000
0.451	        .254000
0.452	        .254000
0.453	        .253000
0.454	        .253000
0.455	        .254000
0.456	        .255000
0.457	        .255000
0.458	        .255000
0.459	        .253000
0.46	        .253000
0.461	        .252000
0.462	        .253000
0.463	        .253000
0.464	        .254000
0.465	        .253000
0.466	        .254000
0.467	        .253000
0.468	        .254000
0.469	        .255000
0.47	        .254000
0.471	        .255000
0.472	        .255000
0.473	        .255000
0.474	        .258000
0.475	        .256000
0.476	        .256000
0.477	        .256000
0.478	        .258000
0.479	        .258000
0.48	        .256000
0.481	        .255000
0.482	        .258000
0.483	        .258000
0.484	        .258000
0.485	        .260000
0.486	        .260000
0.487	        .260000
0.488	        .260000
0.489	        .260000
0.49	        .261000
0.491	        .261000
0.492	        .261000
0.493	        .261000
0.494	        .263000
0.495	        .263000
0.496	        .264000
0.497	        .264000
0.498	        .264000
0.499	        .264000
0.5	            .265000
0.501	        .265000
0.502	        .267000
0.503	        .265000
0.504	        .267000
0.505	        .269000
0.506	        .267000
0.507	        .269000
0.508	        .269000
0.509	        .271000
0.51	        .270000
0.511	        .269000
0.512	        .271000
0.513	        .271000
0.514	        .272000
0.515	        .271000
0.516	        .272000
0.517	        .274000
0.518	        .274000
0.519	        .272000
0.52	        .274000
0.521	        .275000
0.522	        .275000
0.523	        .275000
0.524	        .276000
0.525	        .276000
0.526	        .278000
0.527	        .275000
0.528	        .276000
0.529	        .276000
0.53	        .280000
0.531	        .280000
0.532	        .280000
0.533	        .280000
0.534	        .281000
0.535	        .280000
0.536	        .282000
0.537	        .278000
0.538	        .281000
0.539	        .283000
0.54	        .281000
0.541	        .282000
0.542	        .283000
0.543	        .284000
0.544	        .284000
0.545	        .283000
0.546	        .284000
0.547	        .284000
0.548	        .284000
0.549	        .286000
0.55	        .284000
0.551	        .286000
0.552	        .287000
0.553	        .288000
0.554	        .288000
0.555	        .287000
0.556	        .288000
0.557	        .289000
0.558	        .288000
0.559	        .294000
0.56	        .294000
0.561	        .294000
0.562	        .295000
0.563	        .295000
0.564	        .297000
0.565	        .295000
0.566	        .295000
0.567	        .295000
0.568	        .295000
0.569	        .295000
0.57	        .298000
0.571	        .300000
0.572	        .299000
0.573	        .299000
0.574	        .300000
0.575	        .300000
0.576	        .302000
0.577	        .302000
0.578	        .302000
0.579	        .299000
0.58	        .304000
0.581	        .304000
0.582	        .303000
0.583	        .304000
0.584	        .303000
0.585	        .303000
0.586	        .303000
0.587	        .304000
0.588	        .306000
0.589	        .305000
0.59	        .306000
0.591	        .304000
0.592	        .305000
0.593	        .309000
0.594	        .308000
0.595	        .306000
0.596	        .306000
0.597	        .308000
0.598	        .308000
0.599	        .308000
0.6	        .310000
0.601	        .310000
0.602	        .311000
0.603	        .311000
0.604	        .313000
0.605	        .311000
0.606	        .311000
0.607	        .313000
0.608	        .311000
0.609	        .311000
0.61	        .313000
0.611	        .313000
0.612	        .311000
0.613	        .315000
0.614	        .313000
0.615	        .313000
0.616	        .311000
0.617	        .314000
0.618	        .314000
0.619	        .315000
0.62	        .316000
0.621	        .317000
0.622	        .319000
0.623	        .319000
0.624	        .319000
0.625	        .317000
0.626	        .316000
0.627	        .319000
0.628	        .321000
0.629	        .321000
0.63	        .320000
0.631	        .320000
0.632	        .320000
0.633	        .321000
0.634	        .321000
0.635	        .321000
0.636	        .322000
0.637	        .322000
0.638	        .324000
0.639	        .321000
0.64	        .324000
0.641	        .324000
0.642	        .325000
0.643	        .325000
0.644	        .324000
0.645	        .325000
0.646	        .324000
0.647	        .326000
0.648	        .327000
0.649	        .327000
0.65	        .326000
0.651	        .325000
0.652	        .326000
0.653	        .328000
0.654	        .330000
0.655	        .328000
0.656	        .328000
0.657	        .328000
0.658	        .332000
0.659	        .331000
0.66	        .330000
0.661	        .328000
0.662	        .327000
0.663	        .330000
0.664	        .332000
0.665	        .332000
0.666	        .333000
0.667	        .332000
0.668	        .332000
0.669	        .333000
0.67	        .333000
0.671	        .333000
0.672	        .333000
0.673	        .332000
0.674	        .335000
0.675	        .335000
0.676	        .335000
0.677	        .335000
0.678	        .336000
0.679	        .338000
0.68	        .338000
0.681	        .337000
0.682	        .337000
0.683	        .338000
0.684	        .341000
0.685	        .339000
0.686	        .339000
0.687	        .341000
0.688	        .341000
0.689	        .342000
0.69	        .343000
0.691	        .342000
0.692	        .342000
0.693	        .342000
0.694	        .344000
0.695	        .346000
0.696	        .346000
0.697	        .344000
0.698	        .346000
0.699	        .344000
0.7	        .344000
0.701	        .346000
0.702	        .346000
0.703	        .347000
0.704	        .348000
0.705	        .349000
0.706	        .348000
0.707	        .350000
0.708	        .352000
0.709	        .349000
0.71	        .350000
0.711	        .353000
0.712	        .352000
0.713	        .352000
0.714	        .352000
0.715	        .352000
0.716	        .352000
0.717	        .350000
0.718	        .352000
0.719	        .354000
0.72	        .358000
0.721	        .358000
0.722	        .359000
0.723	        .359000
0.724	        .358000
0.725	        .358000
0.726	        .358000
0.727	        .360000
0.728	        .361000
0.729	        .360000
0.73	        .358000
0.731	        .360000
0.732	        .359000
0.733	        .360000
0.734	        .363000
0.735	        .361000
0.736	        .364000
0.737	        .364000
0.738	        .363000
0.739	        .366000
0.74	        .365000
0.741	        .366000
0.742	        .366000
0.743	        .365000
0.744	        .365000
0.745	        .366000
0.746	        .365000
0.747	        .370000
0.748	        .368000
0.749	        .368000
0.75	        .370000
0.751	        .371000
0.752	        .372000
0.753	        .371000
0.754	        .371000
0.755	        .371000
0.756	        .371000
0.757	        .372000
0.758	        .372000
0.759	        .377000
0.76	        .377000
0.761	        .376000
0.762	        .375000
0.763	        .376000
0.764	        .377000
0.765	        .376000
0.766	        .375000
0.767	        .376000
0.768	        .375000
0.769	        .377000
0.77	        .375000
0.771	        .379000
0.772	        .379000
0.773	        .379000
0.774	        .379000
0.775	        .381000
0.776	        .380000
0.777	        .380000
0.778	        .382000
0.779	        .381000
0.78	        .382000
0.781	        .383000
0.782	        .385000
0.783	        .383000
0.784	        .385000
0.785	        .385000
0.786	        .386000
0.787	        .387000
0.788	        .383000
0.789	        .385000
0.79	        .385000
0.791	        .386000
0.792	        .388000
0.793	        .389000
0.794	        .388000
0.795	        .387000
0.796	        .387000
0.797	        .388000
0.798	        .388000
0.799	        .388000
0.8	        .396000
0.804	        .396000
0.808	        .400000
0.812	        .399000
0.816	        .402000
0.82	        .402000
0.824	        .402000
0.828	        .402000
0.832	        .405000
0.836	        .408000
0.84	        .407000
0.844	        .408000
0.848	        .410000
0.852	        .413000
0.856	        .414000
0.86	        .415000
0.864	        .416000
0.868	        .418000
0.872	        .419000
0.876	        .419000
0.88	        .420000
0.884	        .420000
0.888	        .424000
0.892	        .425000
0.896	        .425000
0.9	        .427000
0.904	        .427000
0.908	        .429000
0.912	        .429000
0.916	        .432000
0.92	        .433000
0.924	        .430000
0.928	        .433000
0.932	        .435000
0.936	        .435000
0.94	        .435000
0.944	        .435000
0.948	        .437000
0.952	        .437000
0.956	        .438000
0.96	        .440000
0.964	        .441000
0.968	        .443000
0.972	        .441000
0.976	        .446000
0.98	        .446000
0.984	        .449000
0.988	        .452000
0.992	        .447000
0.996	        .447000
1	        .452000
1.004	        .449000
1.008	        .452000
1.012	        .455000
1.016	        .453000
1.02	        .459000
1.024	        .455000
1.028	        .459000
1.032	        .459000
1.036	        .459000
1.04	        .459000
1.044	        .460000
1.048	        .463000
1.052	        .463000
1.056	        .466000
1.06	        .466000
1.064	        .466000
1.068	        .468000
1.072	        .470000
1.076	        .473000
1.08	        .471000
1.084	        .474000
1.088	        .475000
1.092	        .475000
1.096	        .477000
1.1	        .479000
1.104	        .481000
1.108	        .482000
1.112	        .477000
1.116	        .481000
1.12	        .480000
1.124	        .481000
1.128	        .484000
1.132	        .486000
1.136	        .488000
1.14	        .488000
1.144	        .487000
1.148	        .490000
1.152	        .488000
1.156	        .490000
1.16	        .493000
1.164	        .496000
1.168	        .497000
1.172	        .496000
1.176	        .497000
1.18	        .498000
1.184	        .498000
1.188	        .498000
1.192	        .499000
1.196	        .499000
1.2	        .502000
1.204	        .502000
1.208	        .499000
1.212	        .501000
1.216	        .502000
1.22	        .504000
1.224	        .505000
1.228	        .505000
1.232	        .505000
1.236	        .507000
1.24	        .507000
1.244	        .510000
1.248	        .512000
1.252	        .512000
1.256	        .509000
1.26	        .513000
1.264	        .514000
1.268	        .512000
1.272	        .513000
1.276	        .515000
1.28	        .518000
1.284	        .519000
1.288	        .519000
1.292	        .519000
1.296	        .520000
1.3	        .520000
1.304	        .520000
1.308	        .521000
1.312	        .521000
1.316	        .521000
1.32	        .521000
1.324	        .524000
1.328	        .526000
1.332	        .526000
1.336	        .525000
1.34	        .526000
1.344	        .526000
1.348	        .524000
1.352	        .523000
1.356	        .524000
1.36	        .529000
1.364	        .532000
1.368	        .530000
1.372	        .521000
1.376	        .525000
1.38	        .529000
1.384	        .523000
1.388	        .523000
1.392	        .524000
1.396	        .523000
1.4	        .521000
1.404	        .521000
1.408	        .518000
1.412	        .521000
1.416	        .520000
1.42	        .520000
1.424	        .518000
1.428	        .518000
1.432	        .516000
1.436	        .519000
1.44	        .520000
1.444	        .523000
1.448	        .525000
1.452	        .527000
1.456	        .526000
1.46	        .529000
1.464	        .530000
1.468	        .530000
1.472	        .532000
1.476	        .535000
1.48	        .535000
1.484	        .536000
1.488	        .537000
1.492	        .538000
1.496	        .536000
1.5	        .541000
1.504	        .540000
1.508	        .541000
1.512	        .541000
1.516	        .541000
1.52	        .542000
1.524	        .545000
1.528	        .543000
1.532	        .542000
1.536	        .545000
1.54	        .542000
1.544	        .543000
1.548	        .547000
1.552	        .548000
1.556	        .547000
1.56	        .547000
1.564	        .551000
1.568	        .552000
1.572	        .548000
1.576	        .548000
1.58	        .552000
1.584	        .551000
1.588	        .549000
1.592	        .551000
1.596	        .552000
1.6	        .557000
1.604	        .558000
1.608	        .557000
1.612	        .553000
1.616	        .554000
1.62	        .553000
1.624	        .553000
1.628	        .557000
1.632	        .554000
1.636	        .554000
1.64	        .554000
1.644	        .556000
1.648	        .560000
1.652	        .562000
1.656	        .559000
1.66	        .560000
1.664	        .558000
1.668	        .559000
1.672	        .559000
1.676	        .560000
1.68	        .560000
1.684	        .558000
1.688	        .558000
1.692	        .562000
1.696	        .562000
1.7	        .563000
1.704	        .562000
1.708	        .557000
1.712	        .556000
1.716	        .554000
1.72	        .553000
1.724	        .557000
1.728	        .557000
1.732	        .556000
1.736	        .556000
1.74	        .558000
1.744	        .558000
1.748	        .556000
1.752	        .557000
1.756	        .558000
1.76	        .559000
1.764	        .560000
1.768	        .562000
1.772	        .563000
1.776	        .563000
1.78	        .565000
1.784	        .563000
1.788	        .559000
1.792	        .567000
1.796	        .563000
1.8	        .563000
1.804	        .559000
1.808	        .559000
1.812	        .559000
1.816	        .562000
1.82	        .556000
1.824	        .553000
1.828	        .552000
1.832	        .551000
1.836	        .551000
1.84	        .547000
1.844	        .547000
1.848	        .546000
1.852	        .540000
1.856	        .532000
1.86	        .521000
1.864	        .520000
1.868	        .521000
1.872	        .520000
1.876	        .525000
1.88	        .521000
1.884	        .519000
1.888	        .512000
1.892	        .504000
1.896	        .501000
1.9	        .498000
1.904	        .495000
1.908	        .496000
1.912	        .488000
1.916	        .488000
1.92	        .490000
1.924	        .485000
1.928	        .485000
1.932	        .486000
1.936	        .486000
1.94	        .486000
1.944	        .487000
1.948	        .488000
1.952	        .486000
1.956	        .485000
1.96	        .486000
1.964	        .487000
1.968	        .492000
1.972	        .490000
1.976	        .488000
1.98	        .487000
1.984	        .487000
1.988	        .490000
1.992	        .492000
1.996	        .498000
2	        .505000
2.004	        .513000
2.008	        .520000
2.012	        .525000
2.016	        .529000
2.02	        .529000
2.024	        .530000
2.028	        .536000
2.032	        .540000
2.036	        .537000
2.04	        .541000
2.044	        .545000
2.048	        .545000
2.052	        .543000
2.056	        .543000
2.06	        .547000
2.064	        .546000
2.068	        .548000
2.072	        .549000
2.076	        .552000
2.08	        .551000
2.084	        .552000
2.088	        .548000
2.092	        .548000
2.096	        .546000
2.1	        .547000
2.10043	        .541400
2.10128	        .542200
2.10213	        .540100
2.10298	        .537500
2.10383	        .538200
2.10469	        .537300
2.10554	        .539700
2.1064	        .542300
2.10725	        .540600
2.10811	        .539900
2.10897	        .540300
2.10983	        .541000
2.11068	        .540100
2.11154	        .541200
2.1124	        .540000
2.11327	        .535500
2.11413	        .530200
2.11499	        .531100
2.11585	        .533400
2.11672	        .532200
2.11758	        .531000
2.11844	        .533500
2.11931	        .535100
2.12018	        .535100
2.12104	        .536900
2.12191	        .538100
2.12278	        .533800
2.12365	        .530600
2.12452	        .532400
2.12539	        .532100
2.12626	        .532100
2.12713	        .535300
2.12801	        .533800
2.12888	        .530100
2.12975	        .527200
2.13063	        .530300
2.1315	        .533200
2.13238	        .533600
2.13326	        .530800
2.13414	        .526300
2.13501	        .528200
2.13589	        .531300
2.13677	        .532100
2.13765	        .530100
2.13854	        .526000
2.13942	        .523300
2.1403	        .520000
2.14118	        .516400
2.14207	        .512400
2.14295	        .515400
2.14384	        .517700
2.14473	        .514400
2.14561	        .509000
2.1465	        .509700
2.14739	        .510500
2.14828	        .507600
2.14917	        .503300
2.15006	        .501400
2.15095	        .502400
2.15185	        .504100
2.15274	        .506200
2.15363	        .508200
2.15453	        .505000
2.15542	        .500300
2.15632	        .502400
2.15722	        .508100
2.15811	        .505900
2.15901	        .503000
2.15991	        .504000
2.16081	        .506200
2.16171	        .504800
2.16261	        .502500
2.16352	        .502700
2.16442	        .508300
2.16532	        .511100
2.16623	        .510200
2.16713	        .510500
2.16804	        .511100
2.16894	        .510000
2.16985	        .514800
2.17076	        .518300
2.17167	        .517100
2.17258	        .515900
2.17349	        .517500
2.1744	        .517500
2.17531	        .520000
2.17623	        .518400
2.17714	        .516000
2.17805	        .518700
2.17897	        .524800
2.17989	        .525500
2.1808	        .525100
2.18172	        .525500
2.18264	        .525400
2.18356	        .525000
2.18448	        .525400
2.1854	        .521800
2.18632	        .521800
2.18724	        .522200
2.18816	        .522800
2.18909	        .524200
2.19001	        .527500
2.19094	        .527800
2.19186	        .524300
2.19279	        .524100
2.19372	        .526600
2.19464	        .524600
2.19557	        .523700
2.1965	        .524900
2.19743	        .523600
2.19837	        .520800
2.1993	        .522300
2.20023	        .524000
2.20116	        .523400
2.2021	        .521700
2.20303	        .522000
2.20397	        .518700
2.20491	        .515200
2.20585	        .516900
2.20678	        .519500
2.20772	        .518000
2.20866	        .518400
2.20961	        .514500
2.21055	        .511600
2.21149	        .513000
2.21243	        .514800
2.21338	        .512600
2.21432	        .511900
2.21527	        .511500
2.21621	        .510400
2.21716	        .509900
2.21811	        .510300
2.21906	        .511300
2.22001	        .508900
2.22096	        .506000
2.22191	        .503400
2.22286	        .501700
2.22382	        .503100
2.22477	        .503000
2.22573	        .501800
2.22668	        .498700
2.22764	        .497200
2.2286	        .496100
2.22955	        .494900
2.23051	        .490800
2.23147	        .491600
2.23243	        .490600
2.23339	        .489700
2.23436	        .489100
2.23532	        .487300
2.23628	        .479200
2.23725	        .479500
2.23821	        .482500
2.23918	        .479900
2.24015	        .478600
2.24112	        .476000
2.24208	        .471400
2.24305	        .469100
2.24402	        .468000
2.245	        .465900
2.24597	        .464700
2.24694	        .465200
2.24791	        .464500
2.24889	        .460200
2.24987	        .457100
2.25084	        .455700
2.25182	        .450900
2.2528	        .449300
2.25378	        .449100
2.25476	        .447400
2.25574	        .443300
2.25672	        .440200
2.2577	        .437700
2.25868	        .434700
2.25967	        .430900
2.26065	        .427800
2.26164	        .423700
2.26263	        .424900
2.26361	        .424400
2.2646	        .420800
2.26559	        .415700
2.26658	        .412500
2.26757	        .411100
2.26856	        .408900
2.26956	        .406200
2.27055	        .403600
2.27155	        .399800
2.27254	        .396200
2.27354	        .393300
2.27453	        .392200
2.27553	        .387800
2.27653	        .380500
2.27753	        .373800
2.27853	        .371200
2.27953	        .369200
2.28054	        .366200
2.28154	        .364000
2.28254	        .362100
2.28355	        .359500
2.28455	        .355600
2.28556	        .350200
2.28657	        .345200
2.28758	        .343400
2.28859	        .342600
2.2896	        .340500
2.29061	        .339600
2.29162	        .336400
2.29263	        .335400
2.29365	        .334100
2.29466	        .333400
2.29568	        .331600
2.29669	        .330600
2.29771	        .328200
2.29873	        .324900
2.29975	        .321600
2.30077	        .320800
2.30179	        .321700
2.30281	        .321600
2.30384	        .320500
2.30486	        .318400
2.30588	        .316600
2.30691	        .315000
2.30794	        .312900
2.30896	        .314600
2.30999	        .315900
2.31102	        .313600
2.31205	        .309500
2.31308	        .307900
2.31412	        .308600
2.31515	        .306700
2.31618	        .303400
2.31722	        .302500
2.31825	        .300600
2.31929	        .299800
2.32033	        .296700
2.32137	        .294500
2.32241	        .289300
2.32345	        .286400
2.32449	        .284800
2.32553	        .283600
2.32657	        .278800
2.32762	        .273000
2.32866	        .272100
2.32971	        .270100
2.33076	        .265700
2.3318	        .263600
2.33285	        .262000
2.3339	        .259100
2.33495	        .257400
2.33601	        .255500
2.33706	        .254100
2.33811	        .255000
2.33917	        .255000
2.34022	        .254200
2.34128	        .253400
2.34234	        .257500
2.34339	        .259500
2.34445	        .259600
2.34551	        .261700
2.34657	        .265300
2.34764	        .269900
2.3487	        .275500
2.34976	        .279200
2.35083	        .281800
2.3519	        .285200
2.35296	        .292600
2.35403	        .299100
2.3551	        .305900
2.35617	        .311800
2.35724	        .320300
2.35831	        .329300
2.35939	        .336500
2.36046	        .343000
2.36153	        .352400
2.36261	        .362500
2.36369	        .368400
2.36476	        .375000
2.36584	        .384300
2.36692	        .392000
2.368	        .397600
2.36909	        .400900
2.37017	        .406400
2.37125	        .412600
2.37234	        .415900
2.37342	        .419900
2.37451	        .426400
2.3756	        .431600
2.37669	        .435000
2.37778	        .434300
2.37887	        .438100
2.37996	        .440000
2.38105	        .440700
2.38214	        .442500
2.38324	        .447300
2.38433	        .450600
2.38543	        .453300
2.38653	        .454500
2.38763	        .454200
2.38873	        .451300
2.38983	        .449500
2.39093	        .449900
2.39203	        .452000
2.39314	        .451500
2.39424	        .449500
2.39535	        .445300
2.39645	        .442100
2.39756	        .444300
2.39867	        .445600
2.39978	        .442800
2.40089	        .441400
2.402	        .440200
2.40312	        .440000
2.40423	        .441100
2.40535	        .441300
2.40646	        .441200
2.40758	        .440700
2.4087	        .439200
2.40982	        .441500
2.41094	        .442400
2.41206	        .440300
2.41318	        .439300
2.4143	        .438500
2.41543	        .437000
2.41655	        .434800
2.41768	        .430700
2.41881	        .425600
2.41994	        .423200
2.42107	        .423900
2.4222	        .423900
2.42333	        .421800
2.42446	        .414900
2.4256	        .410600
2.42673	        .410900
2.42787	        .411300
2.429	        .407300
2.43014	        .403700
2.43128	        .399500
2.43242	        .394000
2.43356	        .389900
2.43471	        .388700
2.43585	        .386500
2.43699	        .385900
2.43814	        .385100
2.43929	        .382100
2.44043	        .375900
2.44158	        .371900
2.44273	        .370500
2.44388	        .368200
2.44504	        .365400
2.44619	        .363000
2.44734	        .357800
2.4485	        .350900
2.44966	        .348700
2.45081	        .346700
2.45197	        .342200
2.45313	        .340100
2.45429	        .338800
2.45545	        .334000
2.45662	        .329800
2.45778	        .325500
2.45895	        .320600
2.46011	        .317700
2.46128	        .312500
2.46245	        .307800
2.46362	        .302700
2.46479	        .297700
2.46596	        .292300
2.46714	        .288100
2.46831	        .283500
2.46949	        .278700
2.47066	        .274800
2.47184	        .271700
2.47302	        .268800
2.4742	        .266800
2.47538	        .262600
2.47656	        .255500
2.47774	        .249900
2.47893	        .248100
2.48011	        .246100
2.4813	        .242300
2.48249	        .239000
2.48368	        .238400
2.48487	        .236200
2.48606	        .234400
2.48725	        .230900
2.48844	        .227600
2.48964	        .226100
2.49083	        .227000
2.49203	        .227400
2.49323	        .226600
2.49443	        .225200
2.49563	        .226200
2.49683	        .224000
2.49803	        .222800
2.49924	        .225000
2.50044	        .223600
2.50165	        .218100
2.50286	        .218000
2.50406	        .218400
2.50527	        .219500
2.50648	        .219900
2.5077	        .219800
2.50891	        .216400
2.51012	        .214200
2.51134	        .213200
2.51256	        .210500
2.51377	        .207700
2.51499	        .206300
2.51621	        .204200
2.51743	        .202700
2.51866	        .198500
2.51988	        .195200
2.52111	        .194300
2.52233	        .191700
2.52356	        .187500
2.52479	        .182000
2.52602	        .179200
2.52725	        .176000
2.52848	        .172300
2.52971	        .169700
2.53095	        .168800
2.53218	        .167600
2.53342	        .164800
2.53466	        .164300
2.5359	        .164300
2.53714	        .166500
2.53838	        .167400
2.53962	        .168400
2.54087	        .171300
2.54211	        .175600
2.54336	        .179100
2.54461	        .183900
2.54586	        .188600
2.54711	        .195500
2.54836	        .202900
2.54961	        .209700
2.55087	        .218000
2.55212	        .228400
2.55338	        .238800
2.55464	        .247600
2.55589	        .253900
2.55716	        .261800
2.55842	        .270500
2.55968	        .279400
2.56094	        .286400
2.56221	        .293600
2.56348	        .301800
2.56474	        .310800
2.56601	        .316600
2.56728	        .321000
2.56855	        .326500
2.56983	        .333400
2.5711	        .337700
2.57238	        .341500
2.57365	        .343600
2.57493	        .346600
2.57621	        .348800
2.57749	        .349400
2.57877	        .351700
2.58005	        .355600
2.58134	        .357400
2.58262	        .361400
2.58391	        .365400
2.5852	        .367300
2.58649	        .369200
2.58778	        .373100
2.58907	        .379000
2.59036	        .382500
2.59166	        .383900
2.59295	        .388600
2.59425	        .393900
2.59555	        .395500
2.59685	        .395000
2.59815	        .396300
2.59945	        .399800
2.60076	        .401000
2.60206	        .401700
2.60337	        .405200
2.60467	        .406500
2.60598	        .407500
2.60729	        .409000
2.6086	        .409800
2.60992	        .409500
2.61123	        .410100
2.61255	        .409800
2.61386	        .411400
2.61518	        .413400
2.6165	        .413300
2.61782	        .410300
2.61914	        .409100
2.62047	        .411700
2.62179	        .413300
2.62312	        .411600
2.62445	        .411100
2.62577	        .412000
2.6271	        .411000
2.62844	        .410700
2.62977	        .411600
2.6311	        .409800
2.63244	        .408900
2.63378	        .408700
2.63511	        .409200
2.63645	        .407600
2.63779	        .406700
2.63914	        .407000
2.64048	        .406100
2.64183	        .403900
2.64317	        .403000
2.64452	        .402500
2.64587	        .401800
2.64722	        .401000
2.64857	        .399900
2.64992	        .398300
2.65128	        .396300
2.65264	        .393200
2.65399	        .392000
2.65535	        .391100
2.65671	        .391000
2.65807	        .389600
2.65944	        .385300
2.6608	        .381500
2.66217	        .381000
2.66353	        .380900
2.6649	        .379300
2.66627	        .377000
2.66764	        .376800
2.66902	        .374600
2.67039	        .369800
2.67177	        .365100
2.67314	        .362100
2.67452	        .358200
2.6759	        .356000
2.67728	        .354400
2.67867	        .352800
2.68005	        .349500
2.68144	        .346300
2.68282	        .341500
2.68421	        .337600
2.6856	        .334500
2.68699	        .329400
2.68839	        .321400
2.68978	        .314800
2.69118	        .308300
2.69257	        .303800
2.69397	        .298800
2.69537	        .292700
2.69677	        .285000
2.69818	        .278800
2.69958	        .272600
2.70099	        .266400
2.7024	        .260400
2.7038	        .255700
2.70522	        .250300
2.70663	        .243500
2.70804	        .237000
2.70945	        .231600
2.71087	        .226700
2.71229	        .221500
2.71371	        .215500
2.71513	        .210400
2.71655	        .201600
2.71797	        .191500
2.7194	        .185600
2.72083	        .182300
2.72225	        .177800
2.72368	        .175200
2.72512	        .172100
2.72655	        .166500
2.72798	        .160400
2.72942	        .157800
2.73086	        .154500
2.73229	        .149800
2.73373	        .146100
2.73518	        .144100
2.73662	        .141800
2.73806	        .139000
2.73951	        .135700
2.74096	        .133300
2.74241	        .129200
2.74386	        .126200
2.74531	        .124300
2.74677	        .122400
2.74822	        .120300
2.74968	        .119500
2.75114	        .116700
2.7526	        .115100
2.75406	        .114400
2.75552	        .114400
2.75699	        .113300
2.75845	        .112100
2.75992	        .110000
2.76139	        .108600
2.76286	        .106700
2.76433	        .105200
2.76581	        .103900
2.76728	        .103300
2.76876	        .102300
2.77024	        .100200
2.77172	        .098100
2.7732	        .097000
2.77469	        .096400
2.77617	        .096300
2.77766	        .095900
2.77915	        .094000
2.78064	        .091800
2.78213	        .092000
2.78362	        .090400
2.78512	        .088900
2.78661	        .088000
2.78811	        .086800
2.78961	        .086000
2.79111	        .087300
2.79262	        .086700
2.79412	        .087400
2.79563	        .089200
2.79714	        .089900
2.79864	        .090000
2.80016	        .089300
2.80167	        .088400
2.80318	        .089000
2.8047	        .088600
2.80622	        .087900
2.80774	        .087800
2.80926	        .086600
2.81078	        .085200
2.8123	        .085900
2.81383	        .086600
2.81536	        .087500
2.81689	        .086600
2.81842	        .085400
2.81995	        .083700
2.82148	        .083800
2.82302	        .083100
2.82456	        .082800
2.8261	        .082400
2.82764	        .081500
2.82918	        .082400
2.83072	        .082600
2.83227	        .082800
2.83382	        .083100
2.83537	        .082300
2.83692	        .080500
2.83847	        .078700
2.84002	        .079300
2.84158	        .079900
2.84314	        .080600
2.8447	        .080400
2.84626	        .079300
2.84782	        .078100
2.84939	        .077000
2.85095	        .076500
2.85252	        .076300
2.85409	        .075600
2.85566	        .075400
2.85724	        .073500
2.85881	        .074500
2.86039	        .075200
2.86197	        .074500
2.86355	        .073000
2.86513	        .072400
2.86671	        .072800
2.8683	        .072500
2.86988	        .072400
2.87147	        .074200
2.87306	        .073500
2.87466	        .070900
2.87625	        .070600
2.87785	        .071300
2.87945	        .070800
2.88104	        .070900
2.88265	        .070200
2.88425	        .070500
2.88585	        .070700
2.88746	        .070300
2.88907	        .069400
2.89068	        .069900
2.89229	        .070100
2.89391	        .069500
2.89552	        .069000
2.89714	        .069000
2.89876	        .068600
2.90038	        .068700
2.902	        .068800
2.90363	        .068400
2.90525	        .067400
2.90688	        .067400
2.90851	        .067800
2.91014	        .067100
2.91178	        .066100
2.91341	        .067400
2.91505	        .067700
2.91669	        .067600
2.91833	        .067900
2.91998	        .068800
2.92162	        .067900
2.92327	        .066900
2.92492	        .065900
2.92657	        .066100
2.92822	        .065400
2.92987	        .065800
2.93153	        .066100
2.93319	        .066300
2.93485	        .066100
2.93651	        .065700
2.93817	        .065200
2.93984	        .066200
2.94151	        .067500
2.94318	        .068000
2.94485	        .066300
2.94652	        .066700
2.94819	        .065900
2.94987	        .064800
2.95155	        .065100
2.95323	        .065100
2.95491	        .064900
2.9566	        .065400
2.95828	        .066100
2.95997	        .066500
2.96166	        .066400
2.96336	        .066100
2.96505	        .065900
2.96675	        .067300
2.96844	        .066700
2.97014	        .066100
2.97185	        .065800
2.97355	        .065700
2.97526	        .065100
2.97696	        .065600
2.97867	        .066300
2.98039	        .067200
2.9821	        .068400
2.98382	        .069500
2.98553	        .067600
2.98725	        .066700
2.98897	        .065700
2.9907	        .066100
2.99242	        .066500
2.99415	        .066900
2.99588	        .067300
2.99761	        .067700
2.99935	        .067500
3.00108	        .067300
3.00282	        .065900
3.00456	        .066500
3.0063	        .067900
3.00804	        .067800
3.00979	        .066600
3.01154	        .066000
3.01329	        .065900
3.01504	        .066700
3.01679	        .066300
3.01855	        .067300
3.02031	        .067800
3.02207	        .067500
3.02383	        .066800
3.02559	        .066800
3.02736	        .066700
3.02913	        .067000
3.0309	        .067000
3.03267	        .066500
3.03444	        .065800
3.03622	        .066000
3.038	        .067100
3.03978	        .067900
3.04156	        .067300
3.04335	        .067100
3.04514	        .066800
3.04692	        .067500
3.04872	        .068600
3.05051	        .068100
3.0523	        .067500
3.0541	        .067300
3.0559	        .067900
3.0577	        .069200
3.05951	        .068300
3.06131	        .067500
3.06312	        .067700
3.06493	        .068400
3.06674	        .068500
3.06856	        .069000
3.07037	        .069100
3.07219	        .068700
3.07401	        .067700
3.07584	        .067500
3.07766	        .067400
3.07949	        .068000
3.08132	        .068500
3.08315	        .068400
3.08499	        .067700
3.08682	        .068000
3.08866	        .067700
3.0905	        .068000
3.09234	        .068800
3.09419	        .069200
3.09604	        .068100
3.09789	        .067700
3.09974	        .067300
3.10159	        .067100
3.10345	        .067400
3.10531	        .067300
3.10717	        .066600
3.10903	        .067100
3.11089	        .068300
3.11276	        .069500
3.11463	        .068900
3.1165	        .068900
3.11838	        .069400
3.12025	        .071200
3.12213	        .071500
3.12401	        .070700
3.12589	        .071000
3.12778	        .071700
3.12967	        .070900
3.13156	        .070700
3.13345	        .070700
3.13534	        .071000
3.13724	        .071800
3.13914	        .072100
3.14104	        .071500
3.14294	        .071900
3.14485	        .071600
3.14676	        .071300
3.14867	        .071500
3.15058	        .072400
3.1525	        .073100
3.15441	        .073300
3.15633	        .073200
3.15825	        .072900
3.16018	        .073900
3.16211	        .074700
3.16404	        .074700
3.16597	        .075700
3.1679	        .076200
3.16984	        .076100
3.17178	        .076900
3.17372	        .078700
3.17566	        .078700
3.17761	        .077600
3.17955	        .077200
3.1815	        .078400
3.18346	        .079500
3.18541	        .079700
3.18737	        .079500
3.18933	        .080200
3.19129	        .080100
3.19326	        .079500
3.19523	        .079700
3.1972	        .081000
3.19917	        .081200
3.20114	        .081100
3.20312	        .081200
3.2051	        .081300
3.20708	        .080600
3.20907	        .081500
3.21105	        .082400
3.21304	        .082100
3.21503	        .081600
3.21703	        .082400
3.21903	        .082500
3.22102	        .082200
3.22303	        .081700
3.22503	        .081300
3.22704	        .081300
3.22905	        .081500
3.23106	        .081600
3.23307	        .082100
3.23509	        .081800
3.23711	        .081700
3.23913	        .081800
3.24115	        .082000
3.24318	        .082200
3.24521	        .082200
3.24724	        .081500
3.24928	        .081000
3.25131	        .081000
3.25335	        .081400
3.2554	        .081400
3.25744	        .082100
3.25949	        .082100
3.26154	        .081300
3.26359	        .080300
3.26565	        .079900
3.2677	        .079400
3.26976	        .079300
3.27183	        .078900
3.27389	        .079100
3.27596	        .079100
3.27803	        .079200
3.2801	        .079100
3.28218	        .078700
3.28426	        .077400
3.28634	        .076700
3.28842	        .077100
3.29051	        .077500
3.2926	        .075600
3.29469	        .074800
3.29678	        .074300
3.29888	        .073800
3.30098	        .073100
3.30308	        .072900
3.30519	        .072900
3.3073	        .072500
3.30941	        .071200
3.31152	        .069400
3.31364	        .067600
3.31575	        .067000
3.31788	        .066400
3.32	        .065500
3.32213	        .064700
3.32426	        .063300
3.32639	        .061500
3.32852	        .060700
3.33066	        .059500
3.3328	        .057300
3.33494	        .055000
3.33709	        .053300
3.33924	        .050900
3.34139	        .049400
3.34354	        .047900
3.3457	        .047300
3.34786	        .046300
3.35002	        .046100
3.35219	        .045700
3.35436	        .045900
3.35653	        .047100
3.3587	        .047600
3.36088	        .047400
3.36306	        .047300
3.36524	        .047200
3.36743	        .047500
3.36961	        .047100
3.3718	        .047200
3.374	        .047400
3.37619	        .047300
3.37839	        .047100
3.3806	        .046800
3.3828	        .046500
3.38501	        .047000
3.38722	        .047200
3.38943	        .047600
3.39165	        .047700
3.39387	        .046900
3.39609	        .046700
3.39832	        .047000
3.40055	        .046700
3.40278	        .046200
3.40501	        .045900
3.40725	        .046200
3.40949	        .046200
3.41173	        .046100
3.41398	        .046200
3.41623	        .046700
3.41848	        .046100
3.42073	        .045800
3.42299	        .046000
3.42525	        .046600
3.42751	        .046700
3.42978	        .046900
3.43205	        .047100
3.43432	        .046800
3.4366	        .046400
3.43888	        .047200
3.44116	        .047500
3.44345	        .047400
3.44573	        .047100
3.44802	        .047200
3.45032	        .047300
3.45261	        .047500
3.45491	        .046600
3.45722	        .045600
3.45952	        .044500
3.46183	        .044200
3.46415	        .043400
3.46646	        .042800
3.46878	        .042800
3.4711	        .042900
3.47343	        .042400
3.47575	        .042900
3.47809	        .043500
3.48042	        .043300
3.48276	        .042800
3.4851	        .043200
3.48744	        .044200
3.48979	        .044900
3.49214	        .044700
3.49449	        .045000
3.49685	        .045200
3.49921	        .045200
3.50157	        .045400
3.50393	        .046000
3.5063	        .046500
3.50868	        .047100
3.51105	        .047700
3.51343	        .048300
3.51581	        .048700
3.5182	        .050300
3.52058	        .052000
3.52298	        .053300
3.52537	        .054400
3.52777	        .056200
3.53017	        .058100
3.53257	        .060100
3.53498	        .061600
3.53739	        .063200
3.53981	        .064500
3.54223	        .065800
3.54465	        .067300
3.54707	        .069000
3.5495	        .070200
3.55193	        .072000
3.55436	        .072700
3.5568	        .073000
3.55924	        .073500
3.56169	        .073900
3.56414	        .073500
3.56659	        .072900
3.56904	        .073100
3.5715	        .074200
3.57396	        .075300
3.57642	        .077200
3.57889	        .079700
3.58136	        .082600
3.58384	        .084200
3.58632	        .086100
3.5888	        .088700
3.59128	        .090600
3.59377	        .092100
3.59626	        .093700
3.59876	        .094500
3.60126	        .095800
3.60376	        .096800
3.60627	        .098000
3.60878	        .099500
3.61129	        .100700
3.61381	        .101700
3.61633	        .103000
3.61885	        .104100
3.62138	        .104600
3.62391	        .104400
3.62644	        .104400
3.62898	        .104500
3.63152	        .105700
3.63406	        .107300
3.63661	        .107500
3.63916	        .107400
3.64172	        .107500
3.64428	        .108000
3.64684	        .109200
3.64941	        .110100
3.65198	        .110400
3.65455	        .110300
3.65713	        .111100
3.65971	        .111200
3.66229	        .111500
3.66488	        .111700
3.66747	        .112000
3.67007	        .111800
3.67267	        .111600
3.67527	        .111400
3.67788	        .111000
3.68049	        .111700
3.6831	        .112300
3.68572	        .112100
3.68834	        .112600
3.69096	        .112100
3.69359	        .111100
3.69623	        .110500
3.69886	        .110300
3.7015	        .109300
3.70415	        .108300
3.70679	        .108100
3.70944	        .107900
3.7121	        .107000
3.71476	        .105700
3.71742	        .104800
3.72009	        .104600
3.72276	        .104200
3.72543	        .103000
3.72811	        .101600
3.73079	        .100900
3.73348	        .099800
3.73617	        .098600
3.73886	        .097200
3.74156	        .095600
3.74426	        .093800
3.74697	        .093200
3.74967	        .093000
3.75239	        .092600
3.7551	        .091400
3.75783	        .089600
3.76055	        .087700
3.76328	        .086700
3.76601	        .085800
3.76875	        .084600
3.77149	        .082300
3.77423	        .081200
3.77698	        .079200
3.77974	        .076400
3.78249	        .073600
3.78525	        .071200
3.78802	        .068000
3.79079	        .065100
3.79356	        .062000
3.79634	        .059100
3.79912	        .056200
3.8019	        .054400
3.80469	        .053200
3.80748	        .052700
3.81028	        .051800
3.81308	        .051800
3.81589	        .051000
3.8187	        .049000
3.82151	        .047300
3.82433	        .046700
3.82715	        .045700
3.82998	        .046100
3.83281	        .047200
3.83564	        .046900
3.83848	        .045700
3.84133	        .045700
3.84417	        .045200
3.84703	        .045000
3.84988	        .045000
3.85274	        .044900
3.85561	        .044500
3.85847	        .044800
3.86135	        .045300
3.86422	        .045100
3.86711	        .044800
3.86999	        .044900
3.87288	        .044600
3.87578	        .045000
3.87867	        .044800
3.88158	        .044100
3.88448	        .044000
3.8874	        .043900
3.89031	        .043500
3.89323	        .043500
3.89616	        .043600
3.89909	        .043500
3.90202	        .043100
3.90496	        .044100
3.9079	        .043600
3.91085	        .042700
3.9138	        .042900
3.91676	        .043100
3.91972	        .042800
3.92268	        .042400
3.92565	        .041500
3.92862	        .041300
3.9316	        .041800
3.93458	        .041100
3.93757	        .040200
3.94056	        .040500
3.94356	        .041000
3.94656	        .039800
3.94957	        .037900
3.95258	        .037300
3.95559	        .037100
3.95861	        .036900
3.96163	        .036500
3.96466	        .036400
3.9677	        .036300
3.97073	        .036700
3.97378	        .037400
3.97682	        .037300
3.97988	        .036700
3.98293	        .036900
3.98599	        .037600
3.98906	        .038400
3.99213	        .039100
3.99521	        .040700
3.99829	        .041400
4.00137	        .041800
4.00446	        .042300
4.00755	        .043000
4.01065	        .043400
4.01376	        .044700
4.01687	        .045300
4.01998	        .046100
4.0231	        .046400
4.02622	        .046800
4.02935	        .047300
4.03248	        .048300
4.03562	        .049000
4.03876	        .049800
4.04191	        .051500
4.04506	        .052700
4.04822	        .053400
4.05138	        .054600
4.05455	        .055700
4.05772	        .057200
4.0609	        .058000
4.06408	        .058600
4.06727	        .059100
4.07046	        .059500
4.07366	        .060400
4.07686	        .062100
4.08007	        .063200
4.08328	        .063100
4.0865	        .063200
4.08972	        .064400
4.09295	        .065300
4.09618	        .065900
4.09942	        .066600
4.10266	        .067700
4.10591	        .068700
4.10916	        .069500
4.11242	        .070000
4.11569	        .071000
4.11896	        .071900
4.12223	        .072900
4.12551	        .073700
4.12879	        .074600
4.13208	        .075300
4.13538	        .075900
4.13868	        .077100
4.14198	        .078300
4.14529	        .078700
4.14861	        .079200
4.15193	        .079900
4.15526	        .080800
4.15859	        .081600
4.16193	        .081600
4.16527	        .082300
4.16862	        .083200
4.17197	        .083700
4.17533	        .084100
4.17869	        .084600
4.18206	        .085100
4.18544	        .084800
4.18882	        .084900
4.19221	        .085400
4.1956	        .085700
4.19899	        .086100
4.2024	        .086400
4.2058	        .086500
4.20922	        .087000
4.21264	        .087000
4.21606	        .086100
4.21949	        .085400
4.22293	        .085400
4.22637	        .085900
4.22982	        .085700
4.23327	        .084800
4.23673	        .084200
4.24019	        .082700
4.24366	        .081600
4.24714	        .080600
4.25062	        .079500
4.2541	        .077500
4.2576	        .074600
4.26109	        .072000
4.2646	        .069900
4.26811	        .069100
4.27162	        .070600
4.27514	        .071700
4.27867	        .072400
4.2822	        .074200
4.28574	        .076400
4.28929	        .078200
4.29284	        .079800
4.2964	        .080400
4.29996	        .080400
4.30353	        .080800
4.3071	        .080800
4.31068	        .080600
4.31427	        .080800
4.31786	        .081300
4.32146	        .082000
4.32506	        .081600
4.32867	        .081000
4.33229	        .080700
4.33591	        .081400
4.33954	        .082000
4.34317	        .081700
4.34681	        .081100
4.35046	        .082000
4.35411	        .083600
4.35777	        .084800
4.36143	        .085300
4.3651	        .085900
4.36878	        .085700
4.37246	        .085400
4.37615	        .084900
4.37985	        .084900
4.38355	        .085000
4.38726	        .084400
4.39097	        .083600
4.39469	        .083000
4.39842	        .082600
4.40216	        .082600
4.4059	        .081600
4.40964	        .080900
4.41339	        .080500
4.41715	        .079600
4.42092	        .078400
4.42469	        .077500
4.42847	        .076400
4.43225	        .075900
4.43604	        .074900
4.43984	        .073900
4.44365	        .073000
4.44746	        .071600
4.45127	        .069800
4.4551	        .068900
4.45893	        .068400
4.46277	        .067400
4.46661	        .066700
4.47046	        .066100
4.47432	        .064900
4.47818	        .064100
4.48205	        .063200
4.48593	        .062700
4.48981	        .062200
4.4937	        .061500
4.4976	        .060300
4.5015	        .059300
4.50541	        .059300
4.50933	        .059200
4.51325	        .059200
4.51718	        .059600
4.52112	        .059100
4.52507	        .059000
4.52902	        .059200
4.53298	        .059100
4.53694	        .058500
4.54092	        .057900
4.5449	        .057400
4.54888	        .057600
4.55288	        .058100
4.55688	        .057700
4.56088	        .056800
4.5649	        .056700
4.56892	        .057000
4.57295	        .056500
4.57698	        .055900
4.58103	        .055700
4.58508	        .055600
4.58913	        .055000
4.5932	        .054800
4.59727	        .054200
4.60135	        .053700
4.60544	        .053700
4.60953	        .053700
4.61363	        .052600
4.61774	        .051500
4.62185	        .051000
4.62597	        .050300
4.6301	        .049000
4.63424	        .047500
4.63839	        .046800
4.64254	        .046300
4.6467	        .045900
4.65087	        .045300
4.65504	        .044600
4.65922	        .044100
4.66341	        .043800
4.66761	        .043700
4.67181	        .043900
4.67603	        .044200
4.68025	        .044600
4.68447	        .044600
4.68871	        .045000
4.69295	        .045600
4.6972	        .046100
4.70146	        .046900
4.70573	        .047800
4.71	        .049000
4.71428	        .050000
4.71857	        .050900
4.72287	        .052600
4.72717	        .053400
4.73149	        .054100
4.73581	        .055000
4.74013	        .055400
4.74447	        .056100
4.74882	        .056200
4.75317	        .056700
4.75753	        .057300
4.7619	        .057300
4.76627	        .057600
4.77066	        .058000
4.77505	        .058400
4.77945	        .058300
4.78386	        .057900
4.78828	        .057500
4.7927	        .057300
4.79713	        .057700
4.80158	        .058000
4.80603	        .057700
4.81048	        .057800
4.81495	        .057600
4.81942	        .056900
4.82391	        .056600
4.8284	        .056800
4.8329	        .056700
4.8374	        .056700
4.84192	        .056800
4.84645	        .056600
4.85098	        .056400
4.85552	        .055900
4.86007	        .055600
4.86463	        .055300
4.8692	        .055400
4.87377	        .055500
4.87836	        .055300
4.88295	        .055300
4.88755	        .055200
4.89216	        .054800
4.89678	        .054700
4.90141	        .054600
4.90605	        .054400
4.91069	        .054500
4.91535	        .054300
4.92001	        .053800
4.92468	        .053400
4.92936	        .053900
4.93405	        .054000
4.93875	        .054100
4.94346	        .054300
4.94818	        .054200
4.9529	        .053900
4.95764	        .054100
4.96238	        .054200
4.96713	        .053700
4.97189	        .054100
4.97667	        .054600
4.98145	        .054700
4.98623	        .054900
4.99103	        .054900
4.99584	        .054800
5.00066	        .054700
5.00549	        .054500
5.01032	        .054700
5.01517	        .055000
5.02002	        .054900
5.02488	        .055100
5.02976	        .055400
5.03464	        .055000
5.03953	        .054700
5.04443	        .054900
5.04935	        .054900
5.05427	        .055300
5.0592	        .055900
5.06414	        .055400
5.06909	        .054600
5.07405	        .053800
5.07902	        .052300
5.084	        .049500
5.08898	        .046400
5.09398	        .044600
5.09899	        .045500
5.10401	        .048300
5.10904	        .051500
5.11408	        .053500
5.11912	        .054300
5.12418	        .055000
5.12925	        .055300
5.13433	        .055500
5.13942	        .055700
5.14451	        .055600
5.14962	        .056000
5.15474	        .056300
5.15987	        .056200
5.16501	        .056100
5.17016	        .056400
5.17532	        .057000
5.18049	        .057100
5.18567	        .056600
5.19086	        .056900
5.19606	        .056800
5.20127	        .056400
5.20649	        .056400
5.21172	        .056700
5.21696	        .056900
5.22222	        .057000
5.22748	        .056700
5.23276	        .056700
5.23804	        .057100
5.24334	        .056900
5.24864	        .056600
5.25396	        .056800
5.25929	        .057100
5.26463	        .056700
5.26998	        .056700
5.27534	        .057000
5.28071	        .056700
5.28609	        .056100
5.29149	        .055600
5.29689	        .055300
5.30231	        .055200
5.30773	        .055000
5.31317	        .054800
5.31862	        .054600
5.32408	        .054100
5.32955	        .053700
5.33503	        .053100
5.34053	        .052600
5.34603	        .052200
5.35155	        .051900
5.35708	        .051500
5.36262	        .051000
5.36817	        .050300
5.37373	        .049600
5.3793	        .048900
5.38489	        .048200
5.39049	        .047800
5.39609	        .047400
5.40171	        .046800
5.40735	        .046200
5.41299	        .045400
5.41865	        .044900
5.42431	        .044200
5.42999	        .043700
5.43568	        .043000
5.44139	        .042100
5.4471	        .041300
5.45283	        .040800
5.45857	        .040200
5.46432	        .039400
5.47008	        .038900
5.47586	        .038500
5.48165	        .037300
5.48745	        .036200
5.49326	        .035500
5.49908	        .034900
5.50492	        .033900
5.51077	        .032400
5.51663	        .031000
5.52251	        .029500
5.52839	        .027400
5.53429	        .025300
5.54021	        .023200
5.54613	        .021700
5.55207	        .021300
5.55802	        .021300
5.56398	        .021400
5.56996	        .021700
5.57595	        .022700
5.58195	        .023900
5.58796	        .025000
5.59399	        .025700
5.60003	        .026300
5.60608	        .027000
5.61215	        .028100
5.61823	        .029200
5.62432	        .030000
5.63043	        .031000
5.63655	        .031400
5.64268	        .030800
5.64883	        .030500
5.65499	        .030600
5.66116	        .030200
5.66735	        .030100
5.67355	        .030000
5.67976	        .029800
5.68599	        .029700
5.69223	        .029400
5.69848	        .029100
5.70475	        .029300
5.71103	        .029300
5.71733	        .029000
5.72364	        .029100
5.72996	        .029300
5.7363	        .029200
5.74265	        .029300
5.74902	        .029100
5.7554	        .029200
5.76179	        .030000
5.7682	        .030000
5.77462	        .030400
5.78106	        .031200
5.78751	        .031800
5.79398	        .032400
5.80046	        .032800
5.80695	        .033200
5.81346	        .034100
5.81998	        .034900
5.82652	        .035500
5.83308	        .035900
5.83964	        .036500
5.84623	        .037400
5.85283	        .038200
5.85944	        .038600
5.86607	        .039400
5.87271	        .040600
5.87937	        .041000
5.88604	        .041100
5.89273	        .041400
5.89943	        .041100
5.90615	        .041300
5.91288	        .042200
5.91963	        .042400
5.9264	        .042600
5.93318	        .042500
5.93997	        .042500
5.94678	        .042800
5.95361	        .043200
5.96045	        .044000
5.96731	        .044600
5.97418	        .044900
5.98107	        .045600
5.98798	        .046100
5.9949	        .046600
6.00184	        .047000
6.00879	        .046900
6.01576	        .046700
6.02275	        .046700
6.02975	        .046800
6.03677	        .047300
6.04381	        .048200
6.05086	        .048500
6.05793	        .048800
6.06501	        .049900
6.07211	        .051000
6.07923	        .051600
6.08636	        .052000
6.09351	        .053200
6.10068	        .054500
6.10787	        .055700
6.11507	        .056900
6.12229	        .057700
6.12952	        .058400
6.13678	        .059700
6.14405	        .061100
6.15134	        .062900
6.15864	        .064100
6.16596	        .065200
6.1733	        .067300
6.18066	        .069600
6.18803	        .072000
6.19543	        .074700
6.20284	        .077100
6.21026	        .079400
6.21771	        .081800
6.22517	        .085100
6.23265	        .088100
6.24015	        .090500
6.24767	        .092500
6.25521	        .094800
6.26276	        .095800
6.27033	        .095900
6.27792	        .095200
6.28553	        .094700
6.29316	        .096400
6.3008	        .100100
6.30847	        .105300
6.31615	        .111700
6.32385	        .118700
6.33157	        .127700
6.33931	        .138000
6.34707	        .146800
6.35485	        .154200
6.36265	        .160900
6.37046	        .167400
6.3783	        .174100
6.38615	        .180900
6.39402	        .187600
6.40192	        .195300
6.40983	        .202600
6.41776	        .207900
6.42571	        .211500
6.43368	        .213700
6.44167	        .216400
6.44969	        .219900
6.45772	        .222300
6.46577	        .224100
6.47384	        .226700
6.48193	        .229000
6.49004	        .229900
6.49817	        .230300
6.50633	        .231600
6.5145	        .232500
6.52269	        .232000
6.53091	        .231200
6.53914	        .230000
6.5474	        .228500
6.55567	        .226900
6.56397	        .223600
6.57229	        .218500
6.58063	        .213500
6.58899	        .208400
6.59737	        .203200
6.60577	        .198200
6.6142	        .193800
6.62265	        .190700
6.63111	        .187400
6.6396	        .183400
6.64811	        .179700
6.65665	        .177000
6.6652	        .175000
6.67378	        .173100
6.68238	        .170300
6.691	        .168000
6.69964	        .166200
6.70831	        .164500
6.717	        .162400
6.72571	        .160300
6.73444	        .158300
6.7432	        .156500
6.75198	        .154700
6.76078	        .153800
6.76961	        .153300
6.77845	        .153300
6.78732	        .152000
6.79622	        .150200
6.80514	        .149400
6.81408	        .149000
6.82304	        .148100
6.83203	        .147100
6.84104	        .146600
6.85008	        .146600
6.85914	        .145900
6.86822	        .145300
6.87733	        .145600
6.88646	        .145500
6.89562	        .144600
6.9048	        .143800
6.91401	        .143600
6.92324	        .143200
6.93249	        .143000
6.94177	        .143400
6.95107	        .144300
6.9604	        .144500
6.96976	        .144500
6.97914	        .145300
6.98854	        .145800
6.99797	        .145800
7.00743	        .145600
7.01691	        .146100
7.02641	        .146700
7.03595	        .147200
7.04551	        .147400
7.05509	        .148200
7.0647	        .148200
7.07434	        .148000
7.084	        .146100
7.09369	        .142100
7.10341	        .135300
7.11315	        .128500
7.12292	        .123000
7.13271	        .120000
7.14254	        .119100
7.15239	        .117500
7.16227	        .113900
7.17217	        .110500
7.1821	        .107700
7.19206	        .106000
7.20205	        .103700
7.21207	        .102500
7.22211	        .101000
7.23218	        .099500
7.24228	        .098100
7.25241	        .098100
7.26257	        .098200
7.27275	        .097500
7.28296	        .096900
7.29321	        .097200
7.30348	        .097800
7.31378	        .098500
7.3241	        .098600
7.33446	        .098900
7.34485	        .098700
7.35527	        .098700
7.36571	        .098500
7.37619	        .098300
7.3867	        .097800
7.39723	        .097600
7.4078	        .097700
7.41839	        .097800
7.42902	        .097200
7.43968	        .096700
7.45037	        .096300
7.46108	        .096500
7.47183	        .096400
7.48261	        .096200
7.49343	        .095400
7.50427	        .095400
7.51514	        .095400
7.52605	        .094600
7.53699	        .093800
7.54796	        .093300
7.55896	        .093000
7.56999	        .092900
7.58106	        .093000
7.59215	        .093200
7.60328	        .093100
7.61445	        .093400
7.62564	        .094200
7.63687	        .095400
7.64814	        .096200
7.65943	        .097400
7.67076	        .097900
7.68212	        .098900
7.69352	        .099500
7.70495	        .099500
7.71641	        .099800
7.72791	        .100700
7.73944	        .100700
7.75101	        .100800
7.76261	        .100200
7.77425	        .099500
7.78592	        .099100
7.79763	        .099400
7.80937	        .099900
7.82115	        .100900
7.83296	        .101200
7.84481	        .100300
7.85669	        .099300
7.86861	        .099100
7.88057	        .098200
7.89256	        .098300
7.90459	        .098900
7.91666	        .099300
7.92876	        .099700
7.9409	        .100500
7.95308	        .100400
7.96529	        .100600
7.97755	        .100000
7.98984	        .099800
8.00217	        .099400
8.01453	        .097800
8.02694	        .096300
8.03938	        .095700
8.05186	        .095600
8.06438	        .096200
8.07694	        .096400
8.08954	        .096400
8.10218	        .096400
8.11486	        .097200
8.12757	        .097500
8.14033	        .097900
8.15313	        .098200
8.16596	        .098100
8.17884	        .097900
8.19176	        .097800
8.20472	        .096100
8.21772	        .095600
8.23076	        .095200
8.24385	        .094700
8.25697	        .093400
8.27014	        .092500
8.28335	        .091300
8.2966	        .090500
8.30989	        .089300
8.32323	        .088000
8.33661	        .085900
8.35003	        .084600
8.3635	        .082700
8.37701	        .081100
8.39056	        .079600
8.40416	        .078300
8.4178	        .076400
8.43148	        .075700
8.44521	        .074400
8.45899	        .074200
8.47281	        .074400
8.48667	        .075100
8.50058	        .074300
8.51454	        .073700
8.52854	        .072400
8.54259	        .071700
8.55668	        .071300
8.57083	        .071100
8.58501	        .070500
8.59925	        .072100
8.61353	        .073600
8.62786	        .075000
8.64224	        .077000
8.65666	        .079600
8.67114	        .080800
8.68566	        .082200
8.70023	        .082600
8.71485	        .083700
8.72952	        .083600
8.74424	        .083500
8.75901	        .084300
8.77383	        .085700
8.78869	        .087500
8.80361	        .089600
8.81858	        .089900
8.8336	        .090000
8.84868	        .089400
8.8638	        .089700
8.87897	        .090000
8.8942	        .090400
8.90948	        .090700
8.92481	        .091000
8.9402	        .090400
8.95564	        .090400
8.97113	        .090600
8.98667	        .091400
9.00227	        .090400
9.01793	        .089900
9.03364	        .089100
9.0494	        .090300
9.06522	        .090000
9.08109	        .088600
9.09702	        .086800
9.113	        .087300
9.12904	        .086500
9.14514	        .085800
9.1613	        .084400
9.17751	        .080900
9.19378	        .077100
9.21011	        .076900
9.22649	        .079800
9.24294	        .083700
9.25944	        .084800
9.276	        .085200
9.29262	        .084700
9.3093	        .085200
9.32604	        .084900
9.34284	        .084700
9.3597	        .084200
9.37663	        .086200
9.39361	        .088100
9.41066	        .088600
9.42776	        .088300
9.44493	        .088400
9.46217	        .088000
9.47946	        .089100
9.49682	        .088200
9.51424	        .086400
9.53173	        .085000
9.54928	        .083900
9.56689	        .082800
9.58458	        .083300
9.60232	        .083000
9.62013	        .082700
9.63801	        .081400
9.65596	        .080500
9.67397	        .078600
9.69205	        .077900
9.71019	        .077100
9.72841	        .077000
9.74669	        .076900
9.76504	        .077500
9.78347	        .076900
9.80196	        .076200
9.82052	        .074600
9.83915	        .074600
9.85785	        .074200
9.87662	        .075400
9.89547	        .076200
9.91439	        .076600
9.93338	        .076300
9.95244	        .076800
9.97158	        .077300
9.99078	        .077900
10.01007	.078400
10.02943        .080400
10.04886        .081700
10.06837        .083000
10.08795        .084200
10.10761        .086300
10.12735        .088000
10.14717        .090100
10.16706        .091600
10.18703        .092100
10.20708        .093100
10.22721        .096900
10.24742        .100600
10.26771        .103800
10.28807        .105100
10.30852        .106500
10.32906        .107700
10.34967        .109000
10.37036        .109200
10.39114        .110400
10.412	        .110300
10.43295        .109800
10.45398        .108100
10.4751	        .106900
10.4963	        .105900
10.51758        .106000
10.53896        .106600
10.56042        .108000
10.58196        .108800
10.6036	        .109300
10.62532        .108200
10.64714        .109200
10.66904        .111700
10.69103        .114600
10.71312        .118100
10.7353	        .123100
10.75756        .127800
10.77993        .132500
10.80238        .136900
10.82493        .142100
10.84757        .146600
10.8703	        .151500
10.89314        .155100
10.91606        .158800
10.93909        .161000
10.96221        .164600
10.98543        .168200
11.00875        .171800
11.03217        .176100
11.05569        .180400
11.07931        .184100
11.10303        .188000
11.12685        .190400
11.15077        .192400
11.1748	        .193700
11.19893        .194700
11.22317        .188900
11.24751        .164800
11.27195        .130600
11.2965	        .112500
11.32116        .109600
11.34593        .110800
11.37081        .109200
11.39579        .107200
11.42089        .102900
11.4461	        .096300
11.47141        .089800
11.49684        .085500
11.52239        .080200
11.54804        .075900
11.57382        .071500
11.5997	        .068100
11.62571        .063800
11.65183        .060700
11.67806        .057500
11.70442        .054700
11.73089        .050700
11.75749        .050300
11.7842	        .051600
11.81104        .052800
11.838	        .052200
11.86509        .052300
11.89229        .051700
11.91963        .051200
11.94709        .050400
11.97467        .051500
12.00238        .051500
12.03023        .052000
12.0582	        .051400
12.0863	        .051600
12.11453        .051400
12.1429	        .052500
12.17139        .052700
12.20003        .053300
12.22879        .052100
12.2577	        .051700
12.28674        .051400
12.31592        .052100
12.34523        .051800
12.37469        .053000
12.40429        .054000
12.43403        .053900
12.46391        .053200
12.49394        .053700
12.52411        .053200
12.55443        .053200
12.58489        .052800
12.6155	        .053000
12.64627        .052100
12.67718        .052000
12.70824        .051300
12.73946        .051700
12.77083        .051500
12.80236        .052100
12.83404        .051700
12.86588        .051600
12.89788        .051000
12.93003        .051900
12.96235        .052500
12.99483        .053300
13.02747        .053900
13.06028        .055600
13.09325        .055800
13.12639        .056400
13.1597	        .056600
13.19318        .057400
13.22682        .057100
13.26064        .057400
13.29464        .057600
13.32881        .057200
13.36315        .055600
13.39767        .056500
13.43237        .055700
13.46725        .054100
13.50232        .051700
13.53756        .050200
13.57299        .048400
13.60861        .047000
13.64441        .043300
13.6804	        .041800
13.71659        .039500
13.75296        .037300
13.78953        .034200
13.82629        .030900
13.86325        .025200
13.90041        .023300
13.93777        .024000
13.97532        .036400
14.01309        .047000
