Name:  Dolomite  CaMgCO3
Type:  Rock
Class:  Sedimentary
Subclass: dolomite 
Particle Size:  Whole rock chips
Sample No.:  ro368
Owner:  Larry Rowan, USGS
Wavelength range:  VNIR SWIR IR
Origin:  Ronda, Spain

Description: bluish gray dolomite





Measurement:  Reflectance
First Column:  X
Second Column:  Y
X Units:  Wavelength (micrometers)
Y Units:  Reflectance (percent)
First X Value:  0.4
Last X Value:  14.01309
Number of X Values:  2826
Additional Information:  dm368a.txt

0.4	        .363000
0.401	        .363000
0.402	        .361000
0.403	        .364000
0.404	        .368000
0.405	        .369000
0.406	        .368000
0.407	        .365000
0.408	        .370000
0.409	        .370000
0.41	        .371000
0.411	        .368000
0.412	        .371000
0.413	        .371000
0.414	        .371000
0.415	        .372000
0.416	        .375000
0.417	        .372000
0.418	        .372000
0.419	        .376000
0.42	        .377000
0.421	        .376000
0.422	        .377000
0.423	        .377000
0.424	        .377000
0.425	        .382000
0.426	        .383000
0.427	        .382000
0.428	        .383000
0.429	        .385000
0.43	        .387000
0.431	        .389000
0.432	        .388000
0.433	        .388000
0.434	        .387000
0.435	        .388000
0.436	        .392000
0.437	        .394000
0.438	        .392000
0.439	        .397000
0.44	        .397000
0.441	        .396000
0.442	        .393000
0.443	        .397000
0.444	        .396000
0.445	        .399000
0.446	        .399000
0.447	        .402000
0.448	        .400000
0.449	        .402000
0.45	        .399000
0.451	        .398000
0.452	        .399000
0.453	        .402000
0.454	        .403000
0.455	        .404000
0.456	        .405000
0.457	        .400000
0.458	        .402000
0.459	        .403000
0.46	        .405000
0.461	        .403000
0.462	        .407000
0.463	        .402000
0.464	        .403000
0.465	        .404000
0.466	        .405000
0.467	        .403000
0.468	        .408000
0.469	        .408000
0.47	        .405000
0.471	        .405000
0.472	        .408000
0.473	        .407000
0.474	        .409000
0.475	        .408000
0.476	        .408000
0.477	        .408000
0.478	        .410000
0.479	        .414000
0.48	        .413000
0.481	        .414000
0.482	        .415000
0.483	        .413000
0.484	        .411000
0.485	        .418000
0.486	        .419000
0.487	        .414000
0.488	        .413000
0.489	        .414000
0.49	        .418000
0.491	        .418000
0.492	        .416000
0.493	        .418000
0.494	        .425000
0.495	        .424000
0.496	        .424000
0.497	        .427000
0.498	        .426000
0.499	        .426000
0.5	        .426000
0.501	        .425000
0.502	        .431000
0.503	        .429000
0.504	        .430000
0.505	        .427000
0.506	        .426000
0.507	        .430000
0.508	        .432000
0.509	        .433000
0.51	        .431000
0.511	        .426000
0.512	        .430000
0.513	        .436000
0.514	        .440000
0.515	        .436000
0.516	        .431000
0.517	        .436000
0.518	        .438000
0.519	        .437000
0.52	        .433000
0.521	        .437000
0.522	        .440000
0.523	        .443000
0.524	        .446000
0.525	        .444000
0.526	        .443000
0.527	        .443000
0.528	        .444000
0.529	        .449000
0.53	        .451000
0.531	        .453000
0.532	        .452000
0.533	        .452000
0.534	        .451000
0.535	        .451000
0.536	        .451000
0.537	        .452000
0.538	        .449000
0.539	        .452000
0.54	        .453000
0.541	        .454000
0.542	        .457000
0.543	        .453000
0.544	        .453000
0.545	        .458000
0.546	        .455000
0.547	        .460000
0.548	        .459000
0.549	        .459000
0.55	        .459000
0.551	        .460000
0.552	        .460000
0.553	        .462000
0.554	        .464000
0.555	        .464000
0.556	        .465000
0.557	        .463000
0.558	        .463000
0.559	        .458000
0.56	        .459000
0.561	        .462000
0.562	        .462000
0.563	        .462000
0.564	        .463000
0.565	        .460000
0.566	        .462000
0.567	        .462000
0.568	        .462000
0.569	        .460000
0.57	        .462000
0.571	        .464000
0.572	        .466000
0.573	        .462000
0.574	        .462000
0.575	        .462000
0.576	        .462000
0.577	        .463000
0.578	        .464000
0.579	        .466000
0.58	        .471000
0.581	        .473000
0.582	        .474000
0.583	        .473000
0.584	        .473000
0.585	        .470000
0.586	        .474000
0.587	        .474000
0.588	        .473000
0.589	        .469000
0.59	        .474000
0.591	        .481000
0.592	        .477000
0.593	        .476000
0.594	        .474000
0.595	        .477000
0.596	        .471000
0.597	        .468000
0.598	        .474000
0.599	        .475000
0.6	        .479000
0.601	        .480000
0.602	        .480000
0.603	        .481000
0.604	        .480000
0.605	        .479000
0.606	        .479000
0.607	        .479000
0.608	        .477000
0.609	        .480000
0.61	        .479000
0.611	        .480000
0.612	        .480000
0.613	        .479000
0.614	        .476000
0.615	        .474000
0.616	        .474000
0.617	        .476000
0.618	        .479000
0.619	        .480000
0.62	        .482000
0.621	        .480000
0.622	        .480000
0.623	        .484000
0.624	        .482000
0.625	        .481000
0.626	        .485000
0.627	        .486000
0.628	        .485000
0.629	        .485000
0.63	        .486000
0.631	        .485000
0.632	        .486000
0.633	        .487000
0.634	        .486000
0.635	        .485000
0.636	        .481000
0.637	        .482000
0.638	        .486000
0.639	        .485000
0.64	        .486000
0.641	        .488000
0.642	        .490000
0.643	        .488000
0.644	        .487000
0.645	        .488000
0.646	        .488000
0.647	        .493000
0.648	        .490000
0.649	        .488000
0.65	        .487000
0.651	        .486000
0.652	        .492000
0.653	        .492000
0.654	        .493000
0.655	        .495000
0.656	        .493000
0.657	        .496000
0.658	        .497000
0.659	        .495000
0.66	        .496000
0.661	        .502000
0.662	        .498000
0.663	        .496000
0.664	        .499000
0.665	        .497000
0.666	        .499000
0.667	        .497000
0.668	        .501000
0.669	        .501000
0.67	        .499000
0.671	        .499000
0.672	        .499000
0.673	        .501000
0.674	        .504000
0.675	        .502000
0.676	        .508000
0.677	        .507000
0.678	        .502000
0.679	        .508000
0.68	        .509000
0.681	        .510000
0.682	        .509000
0.683	        .507000
0.684	        .508000
0.685	        .508000
0.686	        .507000
0.687	        .509000
0.688	        .508000
0.689	        .508000
0.69	        .509000
0.691	        .509000
0.692	        .508000
0.693	        .509000
0.694	        .513000
0.695	        .513000
0.696	        .515000
0.697	        .518000
0.698	        .518000
0.699	        .515000
0.7	        .513000
0.701	        .515000
0.702	        .515000
0.703	        .516000
0.704	        .516000
0.705	        .514000
0.706	        .516000
0.707	        .519000
0.708	        .519000
0.709	        .518000
0.71	        .519000
0.711	        .519000
0.712	        .520000
0.713	        .520000
0.714	        .518000
0.715	        .521000
0.716	        .521000
0.717	        .520000
0.718	        .521000
0.719	        .523000
0.72	        .521000
0.721	        .523000
0.722	        .521000
0.723	        .524000
0.724	        .524000
0.725	        .524000
0.726	        .526000
0.727	        .525000
0.728	        .526000
0.729	        .526000
0.73	        .525000
0.731	        .527000
0.732	        .527000
0.733	        .529000
0.734	        .529000
0.735	        .530000
0.736	        .527000
0.737	        .527000
0.738	        .527000
0.739	        .530000
0.74	        .534000
0.741	        .531000
0.742	        .534000
0.743	        .529000
0.744	        .526000
0.745	        .529000
0.746	        .532000
0.747	        .534000
0.748	        .531000
0.749	        .530000
0.75	        .531000
0.751	        .534000
0.752	        .534000
0.753	        .535000
0.754	        .531000
0.755	        .527000
0.756	        .530000
0.757	        .532000
0.758	        .536000
0.759	        .535000
0.76	        .535000
0.761	        .536000
0.762	        .536000
0.763	        .535000
0.764	        .537000
0.765	        .536000
0.766	        .540000
0.767	        .540000
0.768	        .540000
0.769	        .538000
0.77	        .537000
0.771	        .538000
0.772	        .545000
0.773	        .542000
0.774	        .538000
0.775	        .540000
0.776	        .535000
0.777	        .538000
0.778	        .543000
0.779	        .538000
0.78	        .537000
0.781	        .537000
0.782	        .540000
0.783	        .541000
0.784	        .541000
0.785	        .537000
0.786	        .538000
0.787	        .540000
0.788	        .543000
0.789	        .538000
0.79	        .540000
0.791	        .541000
0.792	        .540000
0.793	        .538000
0.794	        .538000
0.795	        .540000
0.796	        .545000
0.797	        .543000
0.798	        .542000
0.799	        .542000
0.8	        .551000
0.804	        .551000
0.808	        .548000
0.812	        .551000
0.816	        .552000
0.82	        .549000
0.824	        .551000
0.828	        .551000
0.832	        .549000
0.836	        .554000
0.84	        .552000
0.844	        .552000
0.848	        .552000
0.852	        .553000
0.856	        .551000
0.86	        .551000
0.864	        .553000
0.868	        .553000
0.872	        .556000
0.876	        .556000
0.88	        .552000
0.884	        .553000
0.888	        .557000
0.892	        .552000
0.896	        .556000
0.9	        .554000
0.904	        .553000
0.908	        .554000
0.912	        .554000
0.916	        .554000
0.92	        .557000
0.924	        .554000
0.928	        .557000
0.932	        .552000
0.936	        .553000
0.94	        .553000
0.944	        .552000
0.948	        .549000
0.952	        .553000
0.956	        .554000
0.96	        .552000
0.964	        .554000
0.968	        .557000
0.972	        .556000
0.976	        .557000
0.98	        .558000
0.984	        .560000
0.988	        .562000
0.992	        .557000
0.996	        .559000
1	        .562000
1.004	        .559000
1.008	        .560000
1.012	        .560000
1.016	        .564000
1.02	        .562000
1.024	        .562000
1.028	        .557000
1.032	        .560000
1.036	        .563000
1.04	        .563000
1.044	        .559000
1.048	        .563000
1.052	        .562000
1.056	        .564000
1.06	        .568000
1.064	        .567000
1.068	        .570000
1.072	        .571000
1.076	        .569000
1.08	        .574000
1.084	        .575000
1.088	        .575000
1.092	        .578000
1.096	        .576000
1.1	        .578000
1.104	        .580000
1.108	        .581000
1.112	        .578000
1.116	        .578000
1.12	        .579000
1.124	        .579000
1.128	        .580000
1.132	        .585000
1.136	        .584000
1.14	        .586000
1.144	        .581000
1.148	        .580000
1.152	        .585000
1.156	        .586000
1.16	        .587000
1.164	        .589000
1.168	        .587000
1.172	        .586000
1.176	        .587000
1.18	        .586000
1.184	        .585000
1.188	        .587000
1.192	        .585000
1.196	        .585000
1.2	        .586000
1.204	        .586000
1.208	        .585000
1.212	        .586000
1.216	        .590000
1.22	        .589000
1.224	        .590000
1.228	        .590000
1.232	        .590000
1.236	        .587000
1.24	        .586000
1.244	        .591000
1.248	        .591000
1.252	        .591000
1.256	        .591000
1.26	        .590000
1.264	        .586000
1.268	        .589000
1.272	        .590000
1.276	        .592000
1.28	        .596000
1.284	        .597000
1.288	        .597000
1.292	        .596000
1.296	        .596000
1.3	        .597000
1.304	        .597000
1.308	        .595000
1.312	        .597000
1.316	        .598000
1.32	        .601000
1.324	        .601000
1.328	        .598000
1.332	        .598000
1.336	        .595000
1.34	        .593000
1.344	        .591000
1.348	        .590000
1.352	        .590000
1.356	        .587000
1.36	        .586000
1.364	        .586000
1.368	        .584000
1.372	        .570000
1.376	        .563000
1.38	        .559000
1.384	        .553000
1.388	        .551000
1.392	        .543000
1.396	        .540000
1.4	        .535000
1.404	        .529000
1.408	        .525000
1.412	        .526000
1.416	        .523000
1.42	        .521000
1.424	        .518000
1.428	        .516000
1.432	        .516000
1.436	        .516000
1.44	        .518000
1.444	        .519000
1.448	        .520000
1.452	        .521000
1.456	        .523000
1.46	        .525000
1.464	        .529000
1.468	        .529000
1.472	        .531000
1.476	        .534000
1.48	        .536000
1.484	        .540000
1.488	        .545000
1.492	        .547000
1.496	        .549000
1.5	        .552000
1.504	        .556000
1.508	        .557000
1.512	        .559000
1.516	        .562000
1.52	        .564000
1.524	        .565000
1.528	        .565000
1.532	        .567000
1.536	        .571000
1.54	        .575000
1.544	        .575000
1.548	        .573000
1.552	        .580000
1.556	        .580000
1.56	        .585000
1.564	        .586000
1.568	        .589000
1.572	        .585000
1.576	        .589000
1.58	        .590000
1.584	        .589000
1.588	        .589000
1.592	        .589000
1.596	        .590000
1.6	        .589000
1.604	        .590000
1.608	        .593000
1.612	        .593000
1.616	        .596000
1.62	        .595000
1.624	        .593000
1.628	        .591000
1.632	        .592000
1.636	        .591000
1.64	        .591000
1.644	        .595000
1.648	        .595000
1.652	        .598000
1.656	        .596000
1.66	        .595000
1.664	        .593000
1.668	        .592000
1.672	        .592000
1.676	        .592000
1.68	        .590000
1.684	        .586000
1.688	        .590000
1.692	        .591000
1.696	        .587000
1.7	        .589000
1.704	        .589000
1.708	        .586000
1.712	        .584000
1.716	        .580000
1.72	        .579000
1.724	        .581000
1.728	        .580000
1.732	        .579000
1.736	        .581000
1.74	        .580000
1.744	        .582000
1.748	        .582000
1.752	        .582000
1.756	        .584000
1.76	        .584000
1.764	        .584000
1.768	        .585000
1.772	        .582000
1.776	        .578000
1.78	        .575000
1.784	        .571000
1.788	        .570000
1.792	        .571000
1.796	        .570000
1.8	        .567000
1.804	        .558000
1.808	        .557000
1.812	        .557000
1.816	        .554000
1.82	        .549000
1.824	        .546000
1.828	        .542000
1.832	        .535000
1.836	        .530000
1.84	        .524000
1.844	        .520000
1.848	        .518000
1.852	        .513000
1.856	        .509000
1.86	        .501000
1.864	        .495000
1.868	        .490000
1.872	        .482000
1.876	        .476000
1.88	        .464000
1.884	        .449000
1.888	        .436000
1.892	        .420000
1.896	        .405000
1.9	        .398000
1.904	        .393000
1.908	        .394000
1.912	        .389000
1.916	        .389000
1.92	        .387000
1.924	        .385000
1.928	        .385000
1.932	        .385000
1.936	        .388000
1.94	        .391000
1.944	        .392000
1.948	        .394000
1.952	        .394000
1.956	        .397000
1.96	        .399000
1.964	        .403000
1.968	        .405000
1.972	        .408000
1.976	        .411000
1.98	        .415000
1.984	        .420000
1.988	        .425000
1.992	        .427000
1.996	        .435000
2	        .442000
2.004	        .449000
2.008	        .455000
2.012	        .462000
2.016	        .465000
2.02	        .466000
2.024	        .469000
2.028	        .473000
2.032	        .477000
2.036	        .479000
2.04	        .482000
2.044	        .484000
2.048	        .485000
2.052	        .487000
2.056	        .488000
2.06	        .493000
2.064	        .495000
2.068	        .493000
2.072	        .493000
2.076	        .497000
2.08	        .498000
2.084	        .498000
2.088	        .498000
2.092	        .497000
2.096	        .496000
2.1	        .495000
2.10043	        .524800
2.10128	        .524500
2.10213	        .526400
2.10298	        .524000
2.10383	        .523300
2.10469	        .527000
2.10554	        .529200
2.1064	        .530300
2.10725	        .526300
2.10811	        .520900
2.10897	        .518800
2.10983	        .518600
2.11068	        .522700
2.11154	        .520500
2.1124	        .518700
2.11327	        .518300
2.11413	        .518900
2.11499	        .521900
2.11585	        .525000
2.11672	        .522500
2.11758	        .518800
2.11844	        .513000
2.11931	        .513100
2.12018	        .516200
2.12104	        .519000
2.12191	        .514500
2.12278	        .514500
2.12365	        .513500
2.12452	        .508700
2.12539	        .506800
2.12626	        .512400
2.12713	        .513200
2.12801	        .510100
2.12888	        .504500
2.12975	        .504900
2.13063	        .506400
2.1315	        .505100
2.13238	        .502900
2.13326	        .505000
2.13414	        .503300
2.13501	        .500800
2.13589	        .503000
2.13677	        .504500
2.13765	        .504000
2.13854	        .506500
2.13942	        .507200
2.1403	        .503700
2.14118	        .497500
2.14207	        .497200
2.14295	        .495100
2.14384	        .497600
2.14473	        .500900
2.14561	        .500600
2.1465	        .497800
2.14739	        .495600
2.14828	        .499100
2.14917	        .502000
2.15006	        .500800
2.15095	        .501000
2.15185	        .499500
2.15274	        .499600
2.15363	        .500300
2.15453	        .502200
2.15542	        .502900
2.15632	        .503600
2.15722	        .507200
2.15811	        .511800
2.15901	        .511900
2.15991	        .511400
2.16081	        .510900
2.16171	        .508800
2.16261	        .508000
2.16352	        .506600
2.16442	        .506500
2.16532	        .510500
2.16623	        .514000
2.16713	        .513600
2.16804	        .511600
2.16894	        .512300
2.16985	        .512400
2.17076	        .514700
2.17167	        .516800
2.17258	        .516800
2.17349	        .516100
2.1744	        .516700
2.17531	        .515100
2.17623	        .514900
2.17714	        .514000
2.17805	        .513300
2.17897	        .511900
2.17989	        .512600
2.1808	        .514000
2.18172	        .514100
2.18264	        .512700
2.18356	        .513200
2.18448	        .509200
2.1854	        .509800
2.18632	        .513500
2.18724	        .512800
2.18816	        .508800
2.18909	        .504900
2.19001	        .500800
2.19094	        .503100
2.19186	        .504400
2.19279	        .506100
2.19372	        .504200
2.19464	        .501500
2.19557	        .497400
2.1965	        .496800
2.19743	        .498300
2.19837	        .498900
2.1993	        .497100
2.20023	        .496500
2.20116	        .491700
2.2021	        .488400
2.20303	        .486200
2.20397	        .484300
2.20491	        .485600
2.20585	        .488200
2.20678	        .485200
2.20772	        .483300
2.20866	        .478900
2.20961	        .473900
2.21055	        .473300
2.21149	        .474600
2.21243	        .472200
2.21338	        .471400
2.21432	        .473000
2.21527	        .470800
2.21621	        .468100
2.21716	        .468300
2.21811	        .466900
2.21906	        .467000
2.22001	        .465800
2.22096	        .461100
2.22191	        .456100
2.22286	        .455400
2.22382	        .456500
2.22477	        .459100
2.22573	        .456900
2.22668	        .451700
2.22764	        .449600
2.2286	        .446900
2.22955	        .444200
2.23051	        .443900
2.23147	        .442400
2.23243	        .439600
2.23339	        .436000
2.23436	        .434700
2.23532	        .432700
2.23628	        .432000
2.23725	        .429500
2.23821	        .428400
2.23918	        .425700
2.24015	        .421000
2.24112	        .417800
2.24208	        .415600
2.24305	        .413400
2.24402	        .413200
2.245	        .407800
2.24597	        .403800
2.24694	        .401000
2.24791	        .398800
2.24889	        .395400
2.24987	        .394300
2.25084	        .391700
2.25182	        .389900
2.2528	        .384000
2.25378	        .381600
2.25476	        .381800
2.25574	        .376000
2.25672	        .370700
2.2577	        .370800
2.25868	        .367900
2.25967	        .361300
2.26065	        .354600
2.26164	        .355300
2.26263	        .355200
2.26361	        .351500
2.2646	        .349600
2.26559	        .350600
2.26658	        .349500
2.26757	        .345700
2.26856	        .343600
2.26956	        .343700
2.27055	        .341400
2.27155	        .340400
2.27254	        .339600
2.27354	        .335700
2.27453	        .333700
2.27553	        .333500
2.27653	        .333500
2.27753	        .333200
2.27853	        .329500
2.27953	        .330500
2.28054	        .329600
2.28154	        .323600
2.28254	        .322000
2.28355	        .323200
2.28455	        .320200
2.28556	        .319900
2.28657	        .318200
2.28758	        .317000
2.28859	        .314600
2.2896	        .313700
2.29061	        .312500
2.29162	        .308500
2.29263	        .306400
2.29365	        .308000
2.29466	        .306300
2.29568	        .305200
2.29669	        .303100
2.29771	        .298600
2.29873	        .299100
2.29975	        .300600
2.30077	        .297500
2.30179	        .294800
2.30281	        .291600
2.30384	        .292900
2.30486	        .293600
2.30588	        .291400
2.30691	        .288400
2.30794	        .285400
2.30896	        .285400
2.30999	        .288000
2.31102	        .285500
2.31205	        .282900
2.31308	        .281700
2.31412	        .280300
2.31515	        .278800
2.31618	        .279200
2.31722	        .278900
2.31825	        .278500
2.31929	        .276200
2.32033	        .273000
2.32137	        .271800
2.32241	        .271300
2.32345	        .271000
2.32449	        .274300
2.32553	        .274600
2.32657	        .275300
2.32762	        .276100
2.32866	        .275700
2.32971	        .275100
2.33076	        .277700
2.3318	        .278900
2.33285	        .282000
2.3339	        .284400
2.33495	        .286800
2.33601	        .288900
2.33706	        .292600
2.33811	        .295500
2.33917	        .300300
2.34022	        .304000
2.34128	        .306500
2.34234	        .308700
2.34339	        .312700
2.34445	        .317700
2.34551	        .324800
2.34657	        .330800
2.34764	        .337500
2.3487	        .342400
2.34976	        .346000
2.35083	        .350700
2.3519	        .357100
2.35296	        .363100
2.35403	        .370800
2.3551	        .375300
2.35617	        .379800
2.35724	        .384600
2.35831	        .390300
2.35939	        .394500
2.36046	        .397500
2.36153	        .401700
2.36261	        .406800
2.36369	        .409800
2.36476	        .412400
2.36584	        .415900
2.36692	        .417900
2.368	        .416300
2.36909	        .418600
2.37017	        .420800
2.37125	        .419100
2.37234	        .419200
2.37342	        .424800
2.37451	        .425400
2.3756	        .421500
2.37669	        .418500
2.37778	        .419200
2.37887	        .420100
2.37996	        .420400
2.38105	        .417500
2.38214	        .415400
2.38324	        .414000
2.38433	        .413700
2.38543	        .415500
2.38653	        .416000
2.38763	        .415300
2.38873	        .415400
2.38983	        .412400
2.39093	        .410300
2.39203	        .408800
2.39314	        .407600
2.39424	        .406500
2.39535	        .405000
2.39645	        .402500
2.39756	        .402600
2.39867	        .400300
2.39978	        .394900
2.40089	        .393300
2.402	        .395900
2.40312	        .395500
2.40423	        .394000
2.40535	        .393900
2.40646	        .393500
2.40758	        .390200
2.4087	        .387300
2.40982	        .385700
2.41094	        .387000
2.41206	        .385800
2.41318	        .384300
2.4143	        .381300
2.41543	        .379000
2.41655	        .379400
2.41768	        .376400
2.41881	        .370000
2.41994	        .366100
2.42107	        .360400
2.4222	        .357300
2.42333	        .355500
2.42446	        .352700
2.4256	        .349200
2.42673	        .345400
2.42787	        .340700
2.429	        .339000
2.43014	        .336700
2.43128	        .334400
2.43242	        .331800
2.43356	        .328600
2.43471	        .325300
2.43585	        .321900
2.43699	        .317700
2.43814	        .315300
2.43929	        .312200
2.44043	        .306300
2.44158	        .301500
2.44273	        .299700
2.44388	        .295400
2.44504	        .292400
2.44619	        .291400
2.44734	        .290200
2.4485	        .286800
2.44966	        .282700
2.45081	        .280400
2.45197	        .279000
2.45313	        .273700
2.45429	        .269200
2.45545	        .267400
2.45662	        .268500
2.45778	        .265700
2.45895	        .263300
2.46011	        .262800
2.46128	        .262500
2.46245	        .261000
2.46362	        .260600
2.46479	        .257300
2.46596	        .255700
2.46714	        .255300
2.46831	        .253700
2.46949	        .251500
2.47066	        .249100
2.47184	        .247100
2.47302	        .246600
2.4742	        .245700
2.47538	        .244700
2.47656	        .245300
2.47774	        .246200
2.47893	        .243500
2.48011	        .241200
2.4813	        .239500
2.48249	        .236900
2.48368	        .232400
2.48487	        .229400
2.48606	        .229400
2.48725	        .229500
2.48844	        .225800
2.48964	        .222700
2.49083	        .220200
2.49203	        .219600
2.49323	        .218400
2.49443	        .217700
2.49563	        .216000
2.49683	        .212500
2.49803	        .211100
2.49924	        .211400
2.50044	        .209400
2.50165	        .208600
2.50286	        .206700
2.50406	        .206000
2.50527	        .205900
2.50648	        .206400
2.5077	        .205600
2.50891	        .204400
2.51012	        .203200
2.51134	        .202500
2.51256	        .199700
2.51377	        .198500
2.51499	        .196800
2.51621	        .196800
2.51743	        .197700
2.51866	        .199100
2.51988	        .198700
2.52111	        .197900
2.52233	        .198500
2.52356	        .201200
2.52479	        .203500
2.52602	        .202700
2.52725	        .202200
2.52848	        .205400
2.52971	        .207500
2.53095	        .208400
2.53218	        .209900
2.53342	        .211300
2.53466	        .214900
2.5359	        .217600
2.53714	        .220500
2.53838	        .224900
2.53962	        .228900
2.54087	        .235200
2.54211	        .240400
2.54336	        .245000
2.54461	        .250100
2.54586	        .257500
2.54711	        .263100
2.54836	        .271400
2.54961	        .277800
2.55087	        .282400
2.55212	        .287500
2.55338	        .294400
2.55464	        .301500
2.55589	        .307100
2.55716	        .309200
2.55842	        .312800
2.55968	        .316100
2.56094	        .320000
2.56221	        .324100
2.56348	        .329000
2.56474	        .333300
2.56601	        .335900
2.56728	        .337400
2.56855	        .340400
2.56983	        .345100
2.5711	        .350100
2.57238	        .351400
2.57365	        .352400
2.57493	        .353400
2.57621	        .354700
2.57749	        .356000
2.57877	        .359000
2.58005	        .361300
2.58134	        .361100
2.58262	        .362200
2.58391	        .363800
2.5852	        .364000
2.58649	        .365000
2.58778	        .365500
2.58907	        .367300
2.59036	        .368000
2.59166	        .370000
2.59295	        .371500
2.59425	        .373000
2.59555	        .373800
2.59685	        .373800
2.59815	        .371000
2.59945	        .372100
2.60076	        .373600
2.60206	        .374200
2.60337	        .375100
2.60467	        .375100
2.60598	        .373800
2.60729	        .375100
2.6086	        .374000
2.60992	        .373100
2.61123	        .372800
2.61255	        .371900
2.61386	        .370000
2.61518	        .370700
2.6165	        .371400
2.61782	        .369200
2.61914	        .368600
2.62047	        .368000
2.62179	        .366400
2.62312	        .366100
2.62445	        .364800
2.62577	        .364000
2.6271	        .363100
2.62844	        .362000
2.62977	        .361200
2.6311	        .360300
2.63244	        .358700
2.63378	        .357500
2.63511	        .354700
2.63645	        .353200
2.63779	        .351600
2.63914	        .350700
2.64048	        .351100
2.64183	        .351400
2.64317	        .349900
2.64452	        .346900
2.64587	        .344200
2.64722	        .343300
2.64857	        .342000
2.64992	        .341600
2.65128	        .338900
2.65264	        .335200
2.65399	        .332600
2.65535	        .331100
2.65671	        .331400
2.65807	        .329600
2.65944	        .325300
2.6608	        .323400
2.66217	        .321800
2.66353	        .320100
2.6649	        .316400
2.66627	        .313500
2.66764	        .310600
2.66902	        .306100
2.67039	        .303300
2.67177	        .301000
2.67314	        .296900
2.67452	        .292800
2.6759	        .289400
2.67728	        .287000
2.67867	        .281700
2.68005	        .276700
2.68144	        .273400
2.68282	        .269600
2.68421	        .264900
2.6856	        .260300
2.68699	        .256400
2.68839	        .253000
2.68978	        .247000
2.69118	        .241600
2.69257	        .238500
2.69397	        .236800
2.69537	        .233000
2.69677	        .228600
2.69818	        .223800
2.69958	        .219700
2.70099	        .215700
2.7024	        .211900
2.7038	        .205600
2.70522	        .201400
2.70663	        .198400
2.70804	        .194000
2.70945	        .188400
2.71087	        .184100
2.71229	        .178600
2.71371	        .173400
2.71513	        .169300
2.71655	        .166300
2.71797	        .160800
2.7194	        .155000
2.72083	        .153100
2.72225	        .152900
2.72368	        .150900
2.72512	        .148600
2.72655	        .145100
2.72798	        .143800
2.72942	        .142000
2.73086	        .139400
2.73229	        .136100
2.73373	        .134200
2.73518	        .131800
2.73662	        .130800
2.73806	        .129100
2.73951	        .126700
2.74096	        .124300
2.74241	        .122400
2.74386	        .121300
2.74531	        .120500
2.74677	        .118000
2.74822	        .116700
2.74968	        .115500
2.75114	        .113900
2.7526	        .112900
2.75406	        .111500
2.75552	        .108900
2.75699	        .107300
2.75845	        .106900
2.75992	        .106900
2.76139	        .103600
2.76286	        .102700
2.76433	        .103700
2.76581	        .104000
2.76728	        .103300
2.76876	        .101700
2.77024	        .099300
2.77172	        .100100
2.7732	        .099800
2.77469	        .099400
2.77617	        .098900
2.77766	        .098300
2.77915	        .097100
2.78064	        .096600
2.78213	        .097100
2.78362	        .097600
2.78512	        .097300
2.78661	        .096500
2.78811	        .094300
2.78961	        .093500
2.79111	        .093100
2.79262	        .093100
2.79412	        .092300
2.79563	        .091800
2.79714	        .091700
2.79864	        .091500
2.80016	        .091900
2.80167	        .092500
2.80318	        .092700
2.8047	        .091900
2.80622	        .090600
2.80774	        .090900
2.80926	        .089400
2.81078	        .088700
2.8123	        .087700
2.81383	        .087000
2.81536	        .086600
2.81689	        .087000
2.81842	        .087000
2.81995	        .087900
2.82148	        .088400
2.82302	        .088000
2.82456	        .086200
2.8261	        .085700
2.82764	        .087400
2.82918	        .086800
2.83072	        .084600
2.83227	        .083600
2.83382	        .082400
2.83537	        .083400
2.83692	        .083500
2.83847	        .083600
2.84002	        .082700
2.84158	        .082500
2.84314	        .082400
2.8447	        .081700
2.84626	        .081100
2.84782	        .080100
2.84939	        .080700
2.85095	        .083300
2.85252	        .081700
2.85409	        .079400
2.85566	        .079100
2.85724	        .079300
2.85881	        .078700
2.86039	        .079200
2.86197	        .077900
2.86355	        .077300
2.86513	        .077800
2.86671	        .079100
2.8683	        .079100
2.86988	        .077600
2.87147	        .075500
2.87306	        .076300
2.87466	        .077300
2.87625	        .077900
2.87785	        .077100
2.87945	        .076200
2.88104	        .075200
2.88265	        .075300
2.88425	        .075400
2.88585	        .076000
2.88746	        .075100
2.88907	        .074100
2.89068	        .073800
2.89229	        .074400
2.89391	        .075100
2.89552	        .075800
2.89714	        .074500
2.89876	        .073200
2.90038	        .073300
2.902	        .073400
2.90363	        .073500
2.90525	        .074400
2.90688	        .074000
2.90851	        .074000
2.91014	        .073700
2.91178	        .074100
2.91341	        .073600
2.91505	        .073100
2.91669	        .071600
2.91833	        .071700
2.91998	        .072000
2.92162	        .072600
2.92327	        .073400
2.92492	        .073200
2.92657	        .072600
2.92822	        .072700
2.92987	        .071400
2.93153	        .072400
2.93319	        .072400
2.93485	        .071600
2.93651	        .071600
2.93817	        .072000
2.93984	        .070800
2.94151	        .070600
2.94318	        .070900
2.94485	        .071600
2.94652	        .071800
2.94819	        .071700
2.94987	        .071800
2.95155	        .072400
2.95323	        .072400
2.95491	        .072600
2.9566	        .072300
2.95828	        .071600
2.95997	        .070700
2.96166	        .070900
2.96336	        .072000
2.96505	        .072400
2.96675	        .071300
2.96844	        .071300
2.97014	        .071300
2.97185	        .072100
2.97355	        .072100
2.97526	        .071800
2.97696	        .071500
2.97867	        .071800
2.98039	        .071100
2.9821	        .071900
2.98382	        .072800
2.98553	        .072300
2.98725	        .072200
2.98897	        .073100
2.9907	        .072700
2.99242	        .072300
2.99415	        .072600
2.99588	        .073400
2.99761	        .073100
2.99935	        .073600
3.00108	        .073100
3.00282	        .073500
3.00456	        .073700
3.0063	        .072900
3.00804	        .072600
3.00979	        .073000
3.01154	        .072400
3.01329	        .072900
3.01504	        .073100
3.01679	        .073300
3.01855	        .073300
3.02031	        .073500
3.02207	        .074500
3.02383	        .074200
3.02559	        .073500
3.02736	        .073100
3.02913	        .073200
3.0309	        .074100
3.03267	        .074400
3.03444	        .073800
3.03622	        .073600
3.038	        .074500
3.03978	        .074600
3.04156	        .074200
3.04335	        .073800
3.04514	        .073900
3.04692	        .074100
3.04872	        .074200
3.05051	        .073300
3.0523	        .073700
3.0541	        .074400
3.0559	        .074100
3.0577	        .074700
3.05951	        .075600
3.06131	        .074600
3.06312	        .075000
3.06493	        .075300
3.06674	        .075200
3.06856	        .075500
3.07037	        .076100
3.07219	        .076100
3.07401	        .076400
3.07584	        .076500
3.07766	        .076200
3.07949	        .075100
3.08132	        .075300
3.08315	        .076400
3.08499	        .076900
3.08682	        .077500
3.08866	        .078100
3.0905	        .077300
3.09234	        .077100
3.09419	        .077400
3.09604	        .077400
3.09789	        .077000
3.09974	        .077000
3.10159	        .076800
3.10345	        .076900
3.10531	        .076800
3.10717	        .077900
3.10903	        .078000
3.11089	        .078700
3.11276	        .079500
3.11463	        .079900
3.1165	        .079800
3.11838	        .079700
3.12025	        .079400
3.12213	        .080500
3.12401	        .080900
3.12589	        .081600
3.12778	        .081800
3.12967	        .082300
3.13156	        .082600
3.13345	        .083500
3.13534	        .084000
3.13724	        .083600
3.13914	        .082500
3.14104	        .083000
3.14294	        .083600
3.14485	        .084400
3.14676	        .084800
3.14867	        .084800
3.15058	        .085200
3.1525	        .086000
3.15441	        .086900
3.15633	        .088100
3.15825	        .087700
3.16018	        .088100
3.16211	        .088200
3.16404	        .087800
3.16597	        .089200
3.1679	        .090800
3.16984	        .090500
3.17178	        .090200
3.17372	        .090100
3.17566	        .091000
3.17761	        .091200
3.17955	        .091400
3.1815	        .091200
3.18346	        .092100
3.18541	        .093000
3.18737	        .093100
3.18933	        .093200
3.19129	        .094100
3.19326	        .094200
3.19523	        .094500
3.1972	        .094800
3.19917	        .095200
3.20114	        .095400
3.20312	        .095500
3.2051	        .095400
3.20708	        .095700
3.20907	        .096500
3.21105	        .096900
3.21304	        .096200
3.21503	        .096000
3.21703	        .096100
3.21903	        .096200
3.22102	        .096500
3.22303	        .096900
3.22503	        .097500
3.22704	        .098200
3.22905	        .097800
3.23106	        .097500
3.23307	        .097700
3.23509	        .097200
3.23711	        .096100
3.23913	        .096900
3.24115	        .097300
3.24318	        .097400
3.24521	        .097500
3.24724	        .097900
3.24928	        .098100
3.25131	        .097800
3.25335	        .096300
3.2554	        .095500
3.25744	        .095400
3.25949	        .095900
3.26154	        .095300
3.26359	        .094300
3.26565	        .093900
3.2677	        .093200
3.26976	        .092400
3.27183	        .092600
3.27389	        .091800
3.27596	        .089900
3.27803	        .088600
3.2801	        .088100
3.28218	        .086800
3.28426	        .084800
3.28634	        .082200
3.28842	        .078900
3.29051	        .074400
3.2926	        .070600
3.29469	        .067100
3.29678	        .063500
3.29888	        .060600
3.30098	        .059000
3.30308	        .057800
3.30519	        .057300
3.3073	        .056600
3.30941	        .056500
3.31152	        .056600
3.31364	        .057400
3.31575	        .058200
3.31788	        .059000
3.32	        .059000
3.32213	        .059000
3.32426	        .058800
3.32639	        .058000
3.32852	        .057400
3.33066	        .057300
3.3328	        .056100
3.33494	        .055900
3.33709	        .055700
3.33924	        .054300
3.34139	        .053400
3.34354	        .054100
3.3457	        .053600
3.34786	        .052400
3.35002	        .051800
3.35219	        .052900
3.35436	        .054500
3.35653	        .056000
3.3587	        .056200
3.36088	        .057000
3.36306	        .057600
3.36524	        .058200
3.36743	        .058300
3.36961	        .058900
3.3718	        .058700
3.374	        .058900
3.37619	        .058400
3.37839	        .057800
3.3806	        .056900
3.3828	        .056500
3.38501	        .056300
3.38722	        .055600
3.38943	        .055200
3.39165	        .055300
3.39387	        .054900
3.39609	        .055100
3.39832	        .054400
3.40055	        .053800
3.40278	        .053300
3.40501	        .053000
3.40725	        .053500
3.40949	        .054300
3.41173	        .053800
3.41398	        .053600
3.41623	        .053200
3.41848	        .053100
3.42073	        .053300
3.42299	        .053300
3.42525	        .053000
3.42751	        .052300
3.42978	        .051000
3.43205	        .050600
3.43432	        .049900
3.4366	        .048700
3.43888	        .047700
3.44116	        .047000
3.44345	        .046900
3.44573	        .047600
3.44802	        .047700
3.45032	        .047700
3.45261	        .046900
3.45491	        .047200
3.45722	        .047700
3.45952	        .047800
3.46183	        .047600
3.46415	        .047700
3.46646	        .047200
3.46878	        .047500
3.4711	        .047900
3.47343	        .048000
3.47575	        .048100
3.47809	        .049200
3.48042	        .050200
3.48276	        .050400
3.4851	        .051200
3.48744	        .053100
3.48979	        .053700
3.49214	        .054400
3.49449	        .055700
3.49685	        .058100
3.49921	        .060300
3.50157	        .063000
3.50393	        .066000
3.5063	        .068100
3.50868	        .070500
3.51105	        .073700
3.51343	        .076000
3.51581	        .078200
3.5182	        .081100
3.52058	        .084500
3.52298	        .087400
3.52537	        .090200
3.52777	        .093300
3.53017	        .096900
3.53257	        .099300
3.53498	        .101600
3.53739	        .102300
3.53981	        .102500
3.54223	        .102500
3.54465	        .102600
3.54707	        .103000
3.5495	        .105400
3.55193	        .109000
3.55436	        .112600
3.5568	        .115800
3.55924	        .119300
3.56169	        .122100
3.56414	        .124000
3.56659	        .125200
3.56904	        .126100
3.5715	        .127100
3.57396	        .129000
3.57642	        .131300
3.57889	        .133700
3.58136	        .135600
3.58384	        .137800
3.58632	        .139100
3.5888	        .140600
3.59128	        .141900
3.59377	        .143500
3.59626	        .144900
3.59876	        .146000
3.60126	        .146200
3.60376	        .146400
3.60627	        .147200
3.60878	        .148700
3.61129	        .149700
3.61381	        .149900
3.61633	        .150000
3.61885	        .150200
3.62138	        .150400
3.62391	        .150800
3.62644	        .151500
3.62898	        .152000
3.63152	        .151400
3.63406	        .151700
3.63661	        .152400
3.63916	        .152700
3.64172	        .152100
3.64428	        .152000
3.64684	        .152600
3.64941	        .152800
3.65198	        .152600
3.65455	        .152100
3.65713	        .151100
3.65971	        .151200
3.66229	        .150700
3.66488	        .150200
3.66747	        .149900
3.67007	        .149800
3.67267	        .149100
3.67527	        .148100
3.67788	        .146700
3.68049	        .146100
3.6831	        .145200
3.68572	        .143500
3.68834	        .141800
3.69096	        .140800
3.69359	        .139500
3.69623	        .137800
3.69886	        .135600
3.7015	        .134200
3.70415	        .133100
3.70679	        .131400
3.70944	        .129700
3.7121	        .128500
3.71476	        .127300
3.71742	        .126100
3.72009	        .124100
3.72276	        .122900
3.72543	        .120800
3.72811	        .118400
3.73079	        .115700
3.73348	        .112700
3.73617	        .108900
3.73886	        .104700
3.74156	        .100500
3.74426	        .097200
3.74697	        .093500
3.74967	        .089600
3.75239	        .085100
3.7551	        .081600
3.75783	        .079200
3.76055	        .077300
3.76328	        .075200
3.76601	        .072800
3.76875	        .070300
3.77149	        .068200
3.77423	        .066700
3.77698	        .065200
3.77974	        .062900
3.78249	        .061100
3.78525	        .059400
3.78802	        .057900
3.79079	        .056500
3.79356	        .055400
3.79634	        .054200
3.79912	        .053800
3.8019	        .053300
3.80469	        .052400
3.80748	        .051900
3.81028	        .052000
3.81308	        .052800
3.81589	        .054100
3.8187	        .054800
3.82151	        .055200
3.82433	        .055600
3.82715	        .056600
3.82998	        .056800
3.83281	        .057100
3.83564	        .056900
3.83848	        .056900
3.84133	        .056700
3.84417	        .056100
3.84703	        .054400
3.84988	        .052500
3.85274	        .050800
3.85561	        .049500
3.85847	        .048500
3.86135	        .048200
3.86422	        .048100
3.86711	        .048100
3.86999	        .047300
3.87288	        .047000
3.87578	        .046300
3.87867	        .046500
3.88158	        .046300
3.88448	        .045900
3.8874	        .046100
3.89031	        .046400
3.89323	        .046100
3.89616	        .045100
3.89909	        .044100
3.90202	        .043500
3.90496	        .042800
3.9079	        .041900
3.91085	        .041200
3.9138	        .041000
3.91676	        .040700
3.91972	        .040900
3.92268	        .040900
3.92565	        .040600
3.92862	        .039600
3.9316	        .039300
3.93458	        .039100
3.93757	        .039100
3.94056	        .038900
3.94356	        .038200
3.94656	        .037700
3.94957	        .038300
3.95258	        .038500
3.95559	        .038000
3.95861	        .037700
3.96163	        .037600
3.96466	        .037700
3.9677	        .039000
3.97073	        .039800
3.97378	        .040600
3.97682	        .041000
3.97988	        .042700
3.98293	        .044600
3.98599	        .046000
3.98906	        .046700
3.99213	        .048000
3.99521	        .049600
3.99829	        .050900
4.00137	        .052600
4.00446	        .054800
4.00755	        .056000
4.01065	        .057900
4.01376	        .060500
4.01687	        .062300
4.01998	        .063400
4.0231	        .065500
4.02622	        .067700
4.02935	        .069100
4.03248	        .070300
4.03562	        .072600
4.03876	        .074700
4.04191	        .077200
4.04506	        .080100
4.04822	        .082300
4.05138	        .083900
4.05455	        .085100
4.05772	        .086600
4.0609	        .088800
4.06408	        .090900
4.06727	        .093200
4.07046	        .094500
4.07366	        .095700
4.07686	        .097700
4.08007	        .099300
4.08328	        .100200
4.0865	        .102100
4.08972	        .103600
4.09295	        .104800
4.09618	        .106100
4.09942	        .107500
4.10266	        .108200
4.10591	        .108800
4.10916	        .109900
4.11242	        .111100
4.11569	        .111500
4.11896	        .112200
4.12223	        .113100
4.12551	        .113500
4.12879	        .114100
4.13208	        .114700
4.13538	        .114800
4.13868	        .115800
4.14198	        .116200
4.14529	        .116500
4.14861	        .117100
4.15193	        .119000
4.15526	        .120800
4.15859	        .122200
4.16193	        .123100
4.16527	        .123900
4.16862	        .125000
4.17197	        .126600
4.17533	        .127300
4.17869	        .128300
4.18206	        .129400
4.18544	        .130100
4.18882	        .130600
4.19221	        .130800
4.1956	        .130100
4.19899	        .129600
4.2024	        .128300
4.2058	        .127100
4.20922	        .126000
4.21264	        .124600
4.21606	        .123700
4.21949	        .124200
4.22293	        .124000
4.22637	        .124000
4.22982	        .123600
4.23327	        .123100
4.23673	        .122400
4.24019	        .121600
4.24366	        .121600
4.24714	        .121800
4.25062	        .121200
4.2541	        .119300
4.2576	        .116200
4.26109	        .113200
4.2646	        .111000
4.26811	        .111000
4.27162	        .112300
4.27514	        .113000
4.27867	        .113400
4.2822	        .114400
4.28574	        .115200
4.28929	        .115600
4.29284	        .115500
4.2964	        .116100
4.29996	        .116500
4.30353	        .116500
4.3071	        .116800
4.31068	        .117500
4.31427	        .118000
4.31786	        .118700
4.32146	        .119500
4.32506	        .120700
4.32867	        .121700
4.33229	        .123500
4.33591	        .125600
4.33954	        .128300
4.34317	        .132000
4.34681	        .136000
4.35046	        .138000
4.35411	        .138700
4.35777	        .138300
4.36143	        .137800
4.3651	        .136700
4.36878	        .135500
4.37246	        .134300
4.37615	        .132400
4.37985	        .130000
4.38355	        .128300
4.38726	        .126100
4.39097	        .124100
4.39469	        .121700
4.39842	        .119400
4.40216	        .117500
4.4059	        .116600
4.40964	        .114500
4.41339	        .112100
4.41715	        .109600
4.42092	        .108000
4.42469	        .106600
4.42847	        .105500
4.43225	        .105100
4.43604	        .105200
4.43984	        .104800
4.44365	        .104200
4.44746	        .104300
4.45127	        .105400
4.4551	        .107400
4.45893	        .109600
4.46277	        .110400
4.46661	        .111300
4.47046	        .112200
4.47432	        .112900
4.47818	        .112500
4.48205	        .112700
4.48593	        .112000
4.48981	        .110400
4.4937	        .108600
4.4976	        .106700
4.5015	        .104000
4.50541	        .101700
4.50933	        .099900
4.51325	        .098900
4.51718	        .097700
4.52112	        .096300
4.52507	        .095000
4.52902	        .094400
4.53298	        .093700
4.53694	        .093600
4.54092	        .092700
4.5449	        .091600
4.54888	        .090600
4.55288	        .089200
4.55688	        .088200
4.56088	        .087400
4.5649	        .086200
4.56892	        .085000
4.57295	        .082700
4.57698	        .081300
4.58103	        .080300
4.58508	        .079000
4.58913	        .077000
4.5932	        .076200
4.59727	        .075300
4.60135	        .074000
4.60544	        .072800
4.60953	        .072100
4.61363	        .071700
4.61774	        .071200
4.62185	        .070700
4.62597	        .070300
4.6301	        .070100
4.63424	        .070000
4.63839	        .069000
4.64254	        .068800
4.6467	        .069400
4.65087	        .070000
4.65504	        .070700
4.65922	        .072300
4.66341	        .074000
4.66761	        .076000
4.67181	        .077800
4.67603	        .079600
4.68025	        .081400
4.68447	        .083700
4.68871	        .085800
4.69295	        .088400
4.6972	        .090600
4.70146	        .093300
4.70573	        .095500
4.71	        .097800
4.71428	        .100300
4.71857	        .103300
4.72287	        .105500
4.72717	        .107100
4.73149	        .108500
4.73581	        .110000
4.74013	        .111200
4.74447	        .111900
4.74882	        .112700
4.75317	        .113500
4.75753	        .114300
4.7619	        .115300
4.76627	        .115200
4.77066	        .115700
4.77505	        .116200
4.77945	        .116200
4.78386	        .116000
4.78828	        .116200
4.7927	        .116200
4.79713	        .116300
4.80158	        .116200
4.80603	        .115900
4.81048	        .116100
4.81495	        .116600
4.81942	        .116100
4.82391	        .116000
4.8284	        .116300
4.8329	        .116200
4.8374	        .116000
4.84192	        .116000
4.84645	        .115700
4.85098	        .115900
4.85552	        .115800
4.86007	        .115700
4.86463	        .115200
4.8692	        .115100
4.87377	        .114600
4.87836	        .114200
4.88295	        .113800
4.88755	        .113600
4.89216	        .113200
4.89678	        .112800
4.90141	        .112200
4.90605	        .111700
4.91069	        .111500
4.91535	        .111800
4.92001	        .111400
4.92468	        .110900
4.92936	        .110300
4.93405	        .109800
4.93875	        .109500
4.94346	        .109300
4.94818	        .108800
4.9529	        .108600
4.95764	        .108100
4.96238	        .107700
4.96713	        .107400
4.97189	        .107500
4.97667	        .107200
4.98145	        .106800
4.98623	        .106200
4.99103	        .105600
4.99584	        .104900
5.00066	        .104200
5.00549	        .103600
5.01032	        .103100
5.01517	        .102300
5.02002	        .100800
5.02488	        .099100
5.02976	        .097200
5.03464	        .094200
5.03953	        .090700
5.04443	        .086500
5.04935	        .081800
5.05427	        .078100
5.0592	        .076700
5.06414	        .078300
5.06909	        .081600
5.07405	        .084700
5.07902	        .087000
5.084	        .086500
5.08898	        .084000
5.09398	        .081900
5.09899	        .082500
5.10401	        .084500
5.10904	        .086500
5.11408	        .087200
5.11912	        .086900
5.12418	        .086000
5.12925	        .085100
5.13433	        .084300
5.13942	        .083500
5.14451	        .082700
5.14962	        .082100
5.15474	        .081100
5.15987	        .079900
5.16501	        .078300
5.17016	        .077300
5.17532	        .075900
5.18049	        .075000
5.18567	        .074100
5.19086	        .073100
5.19606	        .072200
5.20127	        .071000
5.20649	        .069900
5.21172	        .069000
5.21696	        .067900
5.22222	        .066700
5.22748	        .065300
5.23276	        .064200
5.23804	        .062800
5.24334	        .061700
5.24864	        .060600
5.25396	        .059300
5.25929	        .058000
5.26463	        .056700
5.26998	        .055600
5.27534	        .055100
5.28071	        .054200
5.28609	        .053000
5.29149	        .052100
5.29689	        .052000
5.30231	        .051100
5.30773	        .050200
5.31317	        .049100
5.31862	        .048700
5.32408	        .048400
5.32955	        .048100
5.33503	        .047300
5.34053	        .046500
5.34603	        .045700
5.35155	        .044800
5.35708	        .043900
5.36262	        .043400
5.36817	        .042700
5.37373	        .041900
5.3793	        .040700
5.38489	        .039800
5.39049	        .038900
5.39609	        .037700
5.40171	        .036400
5.40735	        .035600
5.41299	        .034600
5.41865	        .033200
5.42431	        .031800
5.42999	        .030800
5.43568	        .029700
5.44139	        .028300
5.4471	        .027200
5.45283	        .026500
5.45857	        .024900
5.46432	        .023700
5.47008	        .023100
5.47586	        .023000
5.48165	        .022500
5.48745	        .022500
5.49326	        .022500
5.49908	        .022400
5.50492	        .022000
5.51077	        .021900
5.51663	        .021700
5.52251	        .021700
5.52839	        .021700
5.53429	        .021900
5.54021	        .021700
5.54613	        .021500
5.55207	        .021500
5.55802	        .021800
5.56398	        .021700
5.56996	        .022100
5.57595	        .022400
5.58195	        .022600
5.58796	        .023100
5.59399	        .023700
5.60003	        .024000
5.60608	        .023900
5.61215	        .023700
5.61823	        .023700
5.62432	        .023700
5.63043	        .024000
5.63655	        .023700
5.64268	        .023400
5.64883	        .023200
5.65499	        .023200
5.66116	        .023400
5.66735	        .023200
5.67355	        .022600
5.67976	        .022300
5.68599	        .022200
5.69223	        .022400
5.69848	        .021900
5.70475	        .021600
5.71103	        .021200
5.71733	        .021100
5.72364	        .020900
5.72996	        .020900
5.7363	        .020100
5.74265	        .019900
5.74902	        .020000
5.7554	        .020200
5.76179	        .020000
5.7682	        .020100
5.77462	        .019800
5.78106	        .019600
5.78751	        .019300
5.79398	        .019200
5.80046	        .018800
5.80695	        .018400
5.81346	        .018200
5.81998	        .018800
5.82652	        .018800
5.83308	        .018400
5.83964	        .017700
5.84623	        .017500
5.85283	        .017700
5.85944	        .017900
5.86607	        .017700
5.87271	        .017300
5.87937	        .016500
5.88604	        .016900
5.89273	        .016900
5.89943	        .016000
5.90615	        .015400
5.91288	        .016000
5.91963	        .015700
5.9264	        .015500
5.93318	        .015300
5.93997	        .015300
5.94678	        .014700
5.95361	        .014200
5.96045	        .014000
5.96731	        .014300
5.97418	        .014100
5.98107	        .013700
5.98798	        .013300
5.9949	        .013500
6.00184	        .013600
6.00879	        .014200
6.01576	        .014100
6.02275	        .013400
6.02975	        .012700
6.03677	        .013300
6.04381	        .014300
6.05086	        .014200
6.05793	        .013900
6.06501	        .013800
6.07211	        .013700
6.07923	        .014100
6.08636	        .013900
6.09351	        .014600
6.10068	        .015400
6.10787	        .016100
6.11507	        .016800
6.12229	        .017700
6.12952	        .018600
6.13678	        .019500
6.14405	        .020300
6.15134	        .021400
6.15864	        .022600
6.16596	        .024100
6.1733	        .025900
6.18066	        .027700
6.18803	        .029400
6.19543	        .031700
6.20284	        .033700
6.21026	        .035800
6.21771	        .038500
6.22517	        .041500
6.23265	        .044800
6.24015	        .049000
6.24767	        .053300
6.25521	        .058600
6.26276	        .065000
6.27033	        .072400
6.27792	        .080600
6.28553	        .090300
6.29316	        .101600
6.3008	        .114400
6.30847	        .128800
6.31615	        .145900
6.32385	        .164300
6.33157	        .185600
6.33931	        .209900
6.34707	        .233800
6.35485	        .254000
6.36265	        .269300
6.37046	        .279300
6.3783	        .286200
6.38615	        .291900
6.39402	        .297800
6.40192	        .304100
6.40983	        .310000
6.41776	        .314600
6.42571	        .319500
6.43368	        .324200
6.44167	        .327800
6.44969	        .330300
6.45772	        .330700
6.46577	        .329800
6.47384	        .328500
6.48193	        .326300
6.49004	        .323200
6.49817	        .319600
6.50633	        .316300
6.5145	        .312800
6.52269	        .308700
6.53091	        .304700
6.53914	        .301100
6.5474	        .297400
6.55567	        .293800
6.56397	        .289600
6.57229	        .285200
6.58063	        .281100
6.58899	        .277100
6.59737	        .272600
6.60577	        .268300
6.6142	        .264000
6.62265	        .260400
6.63111	        .255900
6.6396	        .250400
6.64811	        .245200
6.65665	        .241500
6.6652	        .237900
6.67378	        .234900
6.68238	        .232100
6.691	        .229300
6.69964	        .226200
6.70831	        .223500
6.717	        .220800
6.72571	        .218400
6.73444	        .215700
6.7432	        .213600
6.75198	        .211500
6.76078	        .209200
6.76961	        .206700
6.77845	        .205400
6.78732	        .203500
6.79622	        .201700
6.80514	        .200300
6.81408	        .198600
6.82304	        .196100
6.83203	        .194900
6.84104	        .193100
6.85008	        .191800
6.85914	        .190300
6.86822	        .187900
6.87733	        .186500
6.88646	        .185600
6.89562	        .184400
6.9048	        .183600
6.91401	        .183100
6.92324	        .182900
6.93249	        .182100
6.94177	        .181900
6.95107	        .181600
6.9604	        .181700
6.96976	        .181500
6.97914	        .181600
6.98854	        .181200
6.99797	        .181000
7.00743	        .179800
7.01691	        .176200
7.02641	        .169900
7.03595	        .162500
7.04551	        .154400
7.05509	        .147100
7.0647	        .140400
7.07434	        .135500
7.084	        .132900
7.09369	        .130200
7.10341	        .125900
7.11315	        .121300
7.12292	        .117200
7.13271	        .114800
7.14254	        .112400
7.15239	        .109600
7.16227	        .106600
7.17217	        .104800
7.1821	        .102100
7.19206	        .099800
7.20205	        .098100
7.21207	        .097300
7.22211	        .095800
7.23218	        .094400
7.24228	        .093100
7.25241	        .092200
7.26257	        .091200
7.27275	        .090600
7.28296	        .089600
7.29321	        .089000
7.30348	        .088700
7.31378	        .088700
7.3241	        .087400
7.33446	        .086400
7.34485	        .086100
7.35527	        .086600
7.36571	        .086600
7.37619	        .085900
7.3867	        .084700
7.39723	        .084100
7.4078	        .083100
7.41839	        .082800
7.42902	        .082100
7.43968	        .081400
7.45037	        .080900
7.46108	        .080600
7.47183	        .080000
7.48261	        .079900
7.49343	        .079200
7.50427	        .079200
7.51514	        .079100
7.52605	        .079100
7.53699	        .078800
7.54796	        .078800
7.55896	        .078500
7.56999	        .077900
7.58106	        .077300
7.59215	        .077000
7.60328	        .076700
7.61445	        .076800
7.62564	        .076200
7.63687	        .075300
7.64814	        .074500
7.65943	        .074800
7.67076	        .074600
7.68212	        .074200
7.69352	        .074000
7.70495	        .074200
7.71641	        .073900
7.72791	        .073900
7.73944	        .073500
7.75101	        .073200
7.76261	        .073200
7.77425	        .073400
7.78592	        .073400
7.79763	        .074000
7.80937	        .073900
7.82115	        .073800
7.83296	        .073200
7.84481	        .073900
7.85669	        .073800
7.86861	        .073300
7.88057	        .072300
7.89256	        .072000
7.90459	        .071400
7.91666	        .071000
7.92876	        .070800
7.9409	        .070600
7.95308	        .070000
7.96529	        .069600
7.97755	        .069300
7.98984	        .069500
8.00217	        .069300
8.01453	        .069100
8.02694	        .068800
8.03938	        .068800
8.05186	        .067400
8.06438	        .067400
8.07694	        .067100
8.08954	        .066400
8.10218	        .066300
8.11486	        .066200
8.12757	        .066100
8.14033	        .066400
8.15313	        .066500
8.16596	        .067800
8.17884	        .068700
8.19176	        .069100
8.20472	        .069100
8.21772	        .069200
8.23076	        .068800
8.24385	        .069000
8.25697	        .068800
8.27014	        .068700
8.28335	        .068100
8.2966	        .067800
8.30989	        .066400
8.32323	        .065600
8.33661	        .064800
8.35003	        .064300
8.3635	        .063600
8.37701	        .063000
8.39056	        .062900
8.40416	        .063000
8.4178	        .062100
8.43148	        .062800
8.44521	        .062800
8.45899	        .062800
8.47281	        .063200
8.48667	        .064000
8.50058	        .064000
8.51454	        .064100
8.52854	        .064800
8.54259	        .065400
8.55668	        .063900
8.57083	        .063900
8.58501	        .064600
8.59925	        .064700
8.61353	        .065000
8.62786	        .066200
8.64224	        .065400
8.65666	        .065500
8.67114	        .065600
8.68566	        .065500
8.70023	        .065200
8.71485	        .065000
8.72952	        .064100
8.74424	        .064900
8.75901	        .066500
8.77383	        .068400
8.78869	        .067800
8.80361	        .067400
8.81858	        .068500
8.8336	        .068300
8.84868	        .066300
8.8638	        .066200
8.87897	        .067200
8.8942	        .067700
8.90948	        .067300
8.92481	        .068000
8.9402	        .068000
8.95564	        .068400
8.97113	        .067700
8.98667	        .068000
9.00227	        .067700
9.01793	        .066600
9.03364	        .065600
9.0494	        .064100
9.06522	        .061300
9.08109	        .061300
9.09702	        .063700
9.113	        .066400
9.12904	        .067700
9.14514	        .068300
9.1613	        .066900
9.17751	        .065700
9.19378	        .065000
9.21011	        .064700
9.22649	        .064700
9.24294	        .065400
9.25944	        .065100
9.276	        .065600
9.29262	        .065100
9.3093	        .064900
9.32604	        .064300
9.34284	        .064900
9.3597	        .065300
9.37663	        .065400
9.39361	        .065400
9.41066	        .066100
9.42776	        .066300
9.44493	        .067200
9.46217	        .067000
9.47946	        .066100
9.49682	        .065100
9.51424	        .064700
9.53173	        .063300
9.54928	        .063200
9.56689	        .062500
9.58458	        .062300
9.60232	        .062700
9.62013	        .063500
9.63801	        .062500
9.65596	        .062100
9.67397	        .061200
9.69205	        .060300
9.71019	        .059500
9.72841	        .060500
9.74669	        .060700
9.76504	        .061300
9.78347	        .061800
9.80196	        .062100
9.82052	        .061000
9.83915	        .060400
9.85785	        .059700
9.87662	        .059400
9.89547	        .058900
9.91439	        .059300
9.93338	        .058900
9.95244	        .058600
9.97158	        .059200
9.99078	        .059300
10.01007        .058400
10.02943        .058000
10.04886        .057400
10.06837        .058000
10.08795        .058500
10.10761        .058600
10.12735        .058200
10.14717        .058900
10.16706        .059400
10.18703        .059300
10.20708        .059200
10.22721        .060000
10.24742        .060100
10.26771        .060300
10.28807        .059800
10.30852        .060100
10.32906        .059800
10.34967        .060300
10.37036        .060800
10.39114        .060900
10.412	        .060300
10.43295        .060200
10.45398        .059400
10.4751	        .059600
10.4963	        .059400
10.51758        .058600
10.53896        .058300
10.56042        .058800
10.58196        .058700
10.6036	        .058600
10.62532        .057900
10.64714        .058500
10.66904        .058800
10.69103        .059700
10.71312        .060000
10.7353	        .060300
10.75756        .059700
10.77993        .059300
10.80238        .059200
10.82493        .060700
10.84757        .061900
10.8703	        .063400
10.89314        .063700
10.91606        .064300
10.93909        .065200
10.96221        .066900
10.98543        .069400
11.00875        .073600
11.03217        .080400
11.05569        .092800
11.07931        .114300
11.10303        .145600
11.12685        .168400
11.15077        .173100
11.1748	        .168000
11.19893        .161600
11.22317        .158100
11.24751        .154500
11.27195        .144500
11.2965	        .131100
11.32116        .118600
11.34593        .107400
11.37081        .095900
11.39579        .087700
11.42089        .080800
11.4461	        .074100
11.47141        .068300
11.49684        .066100
11.52239        .065300
11.54804        .064900
11.57382        .063100
11.5997	        .062300
11.62571        .060600
11.65183        .057700
11.67806        .053600
11.70442        .053100
11.73089        .054900
11.75749        .056700
11.7842	        .058200
11.81104        .059500
11.838	        .060400
11.86509        .061200
11.89229        .060800
11.91963        .060800
11.94709        .060200
11.97467        .059500
12.00238        .057900
12.03023        .057700
12.0582	        .057700
12.0863	        .057900
12.11453        .057000
12.1429	        .057000
12.17139        .056700
12.20003        .055900
12.22879        .054600
12.2577	        .054700
12.28674        .054400
12.31592        .054800
12.34523        .054400
12.37469        .053900
12.40429        .052800
12.43403        .052900
12.46391        .052800
12.49394        .052500
12.52411        .052000
12.55443        .052000
12.58489        .051300
12.6155	        .050700
12.64627        .049200
12.67718        .049400
12.70824        .049100
12.73946        .048400
12.77083        .047700
12.80236        .047600
12.83404        .047100
12.86588        .047900
12.89788        .047400
12.93003        .046500
12.96235        .045800
12.99483        .045300
13.02747        .044200
13.06028        .044400
13.09325        .044400
13.12639        .044200
13.1597	        .042200
13.19318        .040900
13.22682        .040300
13.26064        .040000
13.29464        .038800
13.32881        .036900
13.36315        .035000
13.39767        .034400
13.43237        .032200
13.46725        .030100
13.50232        .027500
13.53756        .025900
13.57299        .024400
13.60861        .026300
13.64441        .031800
13.6804	        .037400
13.71659        .037800
13.75296        .037500
13.78953        .037000
13.82629        .036100
13.86325        .033700
13.90041        .034200
13.93777        .034200
13.97532        .036900
14.01309        .038800
